,rt,stimulus,response,trial_type,trial_index,time_elapsed,internal_node_id,batSong,userID,lang,timeEnd,timeBegin,sequenceTrials,nodeIndex,tIndex,studyID,uniqueID,offset,nChanges,initialOffset,performance,infoUser,study_result,comp_result,view_history,success,timeout,failed_images,failed_audio,failed_video,rtAudio,baseLatencyBegin,baseLatencyEnd,outputLatencyBegin,outputLatencyEnd,question_order,userIDAlicia
0,2429.0,"<img id=""logoLoading"" src=""./images/loading2.gif""><br>Loading...",0,html-button-response,0.0,2432.0,0.0-0.0-0.0,./songs/beatProductionAudio/beatModified/baseSongs/floorplanNoLie/floorplanNoLieModifiedLow.mp3,m12_100,fi,1744035882889.0,1744035861399.0,"bat,tapping",2,5,m12,null,,,,,,25530,data.txt,,,,,,,,,,,,,
1,12633.0,"<div id=""titleBAT"">Säädä tahdistusta<br></div><div id=""loading-bar""><div id=""progress-bar""></div></div><div class=""circle""><div id=""firstRowCircle""><button class= ""circle deg-4"" id=""bat0""></button><button class= ""circle deg-5"" id=""bat1""></button><button class= ""circle deg-6"" id=""bat2""></button></div><div id=""secondRowCircle""><button class= ""circle deg-7"" id=""bat3""></button><button class= ""circle deg-0"" id=""bat4""></button></div><div id=""thirdRowCircle""><button class= ""circle deg-1"" id=""bat5""></button><button class= ""circle deg-2"" id=""bat6""></button><button class= ""circle deg-3"" id=""bat7""></button></div></div>",0,html-button-response,1.0,15067.0,0.0-0.0-1.0,./songs/beatProductionAudio/beatModified/baseSongs/floorplanNoLie/floorplanNoLieModifiedLow.mp3,m12_100,fi,1744035882889.0,1744035861399.0,"bat,tapping",2,5,m12,null,0.0,1.0,7.0,,,25530,data.txt,,,,,,,,,,,,,
2,4451.0,,{'Q0': 0},survey-likert,2.0,19522.0,0.0-0.0-2.0,,m12_100,fi,1744035882889.0,1744035861399.0,"bat,tapping",2,5,m12,null,,,,,,25530,data.txt,,,,,,,,,,,,[0],
3,1673.0,,{'Q0': 0},survey-likert,3.0,21197.0,0.0-0.0-3.0,,m12_100,fi,1744035882889.0,1744035861399.0,"bat,tapping",2,5,m12,null,,,,,,25530,data.txt,,,,,,,,,,,,[0],
0,4027.0,,,instructions,0.0,4038.0,0.0-0.0-0.0,,m12_100,fi,1747598509686.0,1747598504425.0,"tapping,bat",0.0,0.0,m12,null,,,,,,29594,data.txt,"[{'page_index': 0, 'viewing_time': 4027}]",,,,,,,,,,,,
0,1859,"<a href=""https://mmbb.ltdk.helsinki.fi/utils/Privacy_Notice_MMBB_fi.pdf"" target=""_blank"">Tietosuojailmoitus<span class=""new-tab-icon"" aria-hidden=""true""> 🔗</span></a><br><a href=""https://mmbb.ltdk.helsinki.fi/utils/informed_consent_fi.pdf"" target=""_blank"">Tiedote Tutkimuksesta<span class=""new-tab-icon"" aria-hidden=""true""> 🔗</span></a>",0.0,html-button-response,0.0,1865.0,0.0-0.0-0.0,,125,fi,1757790937419.0,1757790895811.0,"tapping,bat",1,0,m12,null,,,,,,37496,data.txt,,,,,,,,,,,,,
1,,,,preload,1.0,3388.0,0.0-0.0-1.0,,125,fi,1757790937419.0,1757790895811.0,"tapping,bat",1,0,m12,null,,,,,,37496,data.txt,,True,False,[],[],[],,,,,,,
2,13843,,,instructions,2.0,17233.0,0.0-0.0-2.0,,125,fi,1757790937419.0,1757790895811.0,"tapping,bat",1,0,m12,null,,,,,,37496,data.txt,"[{'page_index': 0, 'viewing_time': 2096}, {'page_index': 1, 'viewing_time': 4394}, {'page_index': 2, 'viewing_time': 4744}, {'page_index': 3, 'viewing_time': 2607}]",,,,,,,,,,,,
3,15067,,,instructions,3.0,32303.0,0.0-0.0-4.0-0.0,,125,fi,1757790937419.0,1757790895811.0,"tapping,bat",1,0,m12,null,,,,,,37496,data.txt,"[{'page_index': 0, 'viewing_time': 5309}, {'page_index': 1, 'viewing_time': 1604}, {'page_index': 2, 'viewing_time': 1638}, {'page_index': 3, 'viewing_time': 1671}, {'page_index': 4, 'viewing_time': 2073}, {'page_index': 5, 'viewing_time': 2772}]",,,,,,,,,,,,
4,[5759.999999999998],./songs/movementTapAudio/elPesebre.mp3,0.0,audio-button-response,4.0,38053.0,0.0-0.0-6.0-0.0,,125,fi,1757790937419.0,1757790895811.0,"tapping,bat",1,0,m12,null,,,,,,37496,data.txt,,,,,,,[5743.299999952316],0.042666666666666665,0.042666666666666665,0.085,0.085,,
5,2356,Auttaako joku sinua tämän tehtävän suorittamisessa?,0.0,html-button-response,5.0,41211.0,0.0-0.0-7.0,,125,fi,1757790937419.0,1757790895811.0,"tapping,bat",1,0,m12,null,,,,,,37496,data.txt,,,,,,,,,,,,,
0,,,,html-button-response,0.0,1008.0,0.0-0.0-0.0,,m12_100,fi,1747060045679.0,1747060044391.0,"tapping,bat",4,0,m12,null,,,,,,28673,data.txt,,,,,,,,,,,,,
0,2354.0,"<img id=""logoLoading"" src=""./images/loading2.gif""><br>Loading...",0,html-button-response,0.0,2357.0,0.0-0.0-0.0,./songs/beatProductionAudio/beatModified/baseSongs/eclecticElectric/eclecticElectricModifiedLow.mp3,108,fi,1752612405787.0,1752612355177.0,"tapping,bat",3,7,m12,null,,,,,,35555,data.txt,,,,,,,,,,,,,
1,44780.0,"<div id=""titleBAT"">Säädä tahdistusta<br></div><div id=""loading-bar""><div id=""progress-bar""></div></div><div class=""circle""><div id=""firstRowCircle""><button class= ""circle deg-4"" id=""bat0""></button><button class= ""circle deg-5"" id=""bat1""></button><button class= ""circle deg-6"" id=""bat2""></button></div><div id=""secondRowCircle""><button class= ""circle deg-7"" id=""bat3""></button><button class= ""circle deg-0"" id=""bat4""></button></div><div id=""thirdRowCircle""><button class= ""circle deg-1"" id=""bat5""></button><button class= ""circle deg-2"" id=""bat6""></button><button class= ""circle deg-3"" id=""bat7""></button></div></div>",0,html-button-response,1.0,47140.0,0.0-0.0-1.0,./songs/beatProductionAudio/beatModified/baseSongs/eclecticElectric/eclecticElectricModifiedLow.mp3,108,fi,1752612405787.0,1752612355177.0,"tapping,bat",3,7,m12,null,2.0,13.0,1.0,,,35555,data.txt,,,,,,,,,,,,,
2,1930.0,,{'Q0': 2},survey-likert,2.0,49076.0,0.0-0.0-2.0,,108,fi,1752612405787.0,1752612355177.0,"tapping,bat",3,7,m12,null,,,,,,35555,data.txt,,,,,,,,,,,,[0],
3,1144.0,,{'Q0': 1},survey-likert,3.0,50227.0,0.0-0.0-3.0,,108,fi,1752612405787.0,1752612355177.0,"tapping,bat",3,7,m12,null,,,,,,35555,data.txt,,,,,,,,,,,,[0],
0,1232.0,"<img id=""logoLoading"" src=""./images/loading2.gif""><br>Loading...",0,html-button-response,0.0,1235.0,0.0-0.0-0.0,./songs/beatProductionAudio/beatModified/baseSongs/softSand/softSandModifiedLow.mp3,m12_100,fi,1745571273200.0,1745571262371.0,"tapping,bat",3,6,m12,null,,,,,,28013,data.txt,,,,,,,,,,,,,
1,6658.0,"<div id=""titleBAT"">Säädä tahdistusta<br></div><div id=""loading-bar""><div id=""progress-bar""></div></div><div class=""circle""><div id=""firstRowCircle""><button class= ""circle deg-4"" id=""bat0""></button><button class= ""circle deg-5"" id=""bat1""></button><button class= ""circle deg-6"" id=""bat2""></button></div><div id=""secondRowCircle""><button class= ""circle deg-7"" id=""bat3""></button><button class= ""circle deg-0"" id=""bat4""></button></div><div id=""thirdRowCircle""><button class= ""circle deg-1"" id=""bat5""></button><button class= ""circle deg-2"" id=""bat6""></button><button class= ""circle deg-3"" id=""bat7""></button></div></div>",0,html-button-response,1.0,7894.0,0.0-0.0-1.0,./songs/beatProductionAudio/beatModified/baseSongs/softSand/softSandModifiedLow.mp3,m12_100,fi,1745571273200.0,1745571262371.0,"tapping,bat",3,6,m12,null,1.0,1.0,6.0,,,28013,data.txt,,,,,,,,,,,,,
2,1910.0,,{'Q0': 2},survey-likert,2.0,9806.0,0.0-0.0-2.0,,m12_100,fi,1745571273200.0,1745571262371.0,"tapping,bat",3,6,m12,null,,,,,,28013,data.txt,,,,,,,,,,,,[0],
3,715.0,,{'Q0': 2},survey-likert,3.0,10524.0,0.0-0.0-3.0,,m12_100,fi,1745571273200.0,1745571262371.0,"tapping,bat",3,6,m12,null,,,,,,28013,data.txt,,,,,,,,,,,,[0],
0,2286.0,"<img id=""logoLoading"" src=""./images/loading2.gif""><br>Loading...",0,html-button-response,0.0,2290.0,0.0-0.0-0.0,./songs/beatProductionAudio/beatModified/baseSongs/lettuce/lettuceModifiedLow.mp3,108,fi,1752612258773.0,1752612201269.0,"tapping,bat",3,4,m12,null,,,,,,35552,data.txt,,,,,,,,,,,,,
1,51280.0,"<div id=""titleBAT"">Säädä tahdistusta<br></div><div id=""loading-bar""><div id=""progress-bar""></div></div><div class=""circle""><div id=""firstRowCircle""><button class= ""circle deg-4"" id=""bat0""></button><button class= ""circle deg-5"" id=""bat1""></button><button class= ""circle deg-6"" id=""bat2""></button></div><div id=""secondRowCircle""><button class= ""circle deg-7"" id=""bat3""></button><button class= ""circle deg-0"" id=""bat4""></button></div><div id=""thirdRowCircle""><button class= ""circle deg-1"" id=""bat5""></button><button class= ""circle deg-2"" id=""bat6""></button><button class= ""circle deg-3"" id=""bat7""></button></div></div>",0,html-button-response,1.0,53572.0,0.0-0.0-1.0,./songs/beatProductionAudio/beatModified/baseSongs/lettuce/lettuceModifiedLow.mp3,108,fi,1752612258773.0,1752612201269.0,"tapping,bat",3,4,m12,null,1.0,20.0,7.0,,,35552,data.txt,,,,,,,,,,,,,
2,2438.0,,{'Q0': 2},survey-likert,2.0,56015.0,0.0-0.0-2.0,,108,fi,1752612258773.0,1752612201269.0,"tapping,bat",3,4,m12,null,,,,,,35552,data.txt,,,,,,,,,,,,[0],
3,1172.0,,{'Q0': 1},survey-likert,3.0,57194.0,0.0-0.0-3.0,,108,fi,1752612258773.0,1752612201269.0,"tapping,bat",3,4,m12,null,,,,,,35552,data.txt,,,,,,,,,,,,[0],
0,1336.0,"<img id=""logoLoading"" src=""./images/loading2.gif""><br>Loading...",0,html-button-response,0.0,1339.0,0.0-0.0-0.0,./songs/beatProductionAudio/beatModified/baseSongs/eclecticElectric/eclecticElectricModifiedLow.mp3,m12_100,fi,1745571330916.0,1745571273947.0,"tapping,bat",3,7,m12,null,,,,,,28014,data.txt,,,,,,,,,,,,,
1,53379.0,"<div id=""titleBAT"">Säädä tahdistusta<br></div><div id=""loading-bar""><div id=""progress-bar""></div></div><div class=""circle""><div id=""firstRowCircle""><button class= ""circle deg-4"" id=""bat0""></button><button class= ""circle deg-5"" id=""bat1""></button><button class= ""circle deg-6"" id=""bat2""></button></div><div id=""secondRowCircle""><button class= ""circle deg-7"" id=""bat3""></button><button class= ""circle deg-0"" id=""bat4""></button></div><div id=""thirdRowCircle""><button class= ""circle deg-1"" id=""bat5""></button><button class= ""circle deg-2"" id=""bat6""></button><button class= ""circle deg-3"" id=""bat7""></button></div></div>",0,html-button-response,1.0,54720.0,0.0-0.0-1.0,./songs/beatProductionAudio/beatModified/baseSongs/eclecticElectric/eclecticElectricModifiedLow.mp3,m12_100,fi,1745571330916.0,1745571273947.0,"tapping,bat",3,7,m12,null,4.0,11.0,1.0,,,28014,data.txt,,,,,,,,,,,,,
2,1233.0,,{'Q0': 2},survey-likert,2.0,55955.0,0.0-0.0-2.0,,m12_100,fi,1745571330916.0,1745571273947.0,"tapping,bat",3,7,m12,null,,,,,,28014,data.txt,,,,,,,,,,,,[0],
3,749.0,,{'Q0': 2},survey-likert,3.0,56707.0,0.0-0.0-3.0,,m12_100,fi,1745571330916.0,1745571273947.0,"tapping,bat",3,7,m12,null,,,,,,28014,data.txt,,,,,,,,,,,,[0],
0,2700.0,,,instructions,0.0,2705.0,0.0-0.0-0.0,,125,fi,1757791278919.0,1757791159131.0,"tapping,bat",3,0,m12,null,,,,,,37498,data.txt,"[{'page_index': 0, 'viewing_time': 2699}]",,,,,,,,,,,,
1,116439.0,,,instructions,1.0,119146.0,0.0-0.0-1.0,,125,fi,1757791278919.0,1757791159131.0,"tapping,bat",3,0,m12,null,,,,,,37498,data.txt,"[{'page_index': 0, 'viewing_time': 6497}, {'page_index': 1, 'viewing_time': 24043}, {'page_index': 2, 'viewing_time': 3760}, {'page_index': 3, 'viewing_time': 4494}, {'page_index': 4, 'viewing_time': 17946}, {'page_index': 5, 'viewing_time': 14569}, {'page_index': 6, 'viewing_time': 12849}, {'page_index': 7, 'viewing_time': 13066}, {'page_index': 8, 'viewing_time': 5915}, {'page_index': 9, 'viewing_time': 8823}, {'page_index': 10, 'viewing_time': 4478}]",,,,,,,,,,,,
0,817.0,,,instructions,0.0,820.0,0.0-0.0-0.0,,142,fi,1759936311046.0,1759936309858.0,"tapping,bat",0.0,0.0,m12,null,,,,,,38014,data.txt,"[{'page_index': 0, 'viewing_time': 816}]",,,,,,,,,,,,
0,581.0,"<img id=""logoLoading"" src=""./images/loading2.gif""><br>Loading...",0,html-button-response,0.0,590.0,0.0-0.0-0.0,./songs/beatProductionAudio/beatModified/baseSongs/training/trainingBaseModified.mp3,141,fi,1751654894544.0,1751654863565.0,"bat,tapping",2,1,m12,null,,,,,,34276,data.txt,,,,,,,,,,,,,
1,23358.0,"<div id=""titleBAT"">Säädä tahdistusta<br></div><div id=""loading-bar""><div id=""progress-bar""></div></div><div class=""circle""><div id=""firstRowCircle""><button class= ""circle deg-4"" id=""bat0""></button><button class= ""circle deg-5"" id=""bat1""></button><button class= ""circle deg-6"" id=""bat2""></button></div><div id=""secondRowCircle""><button class= ""circle deg-7"" id=""bat3""></button><button class= ""circle deg-0"" id=""bat4""></button></div><div id=""thirdRowCircle""><button class= ""circle deg-1"" id=""bat5""></button><button class= ""circle deg-2"" id=""bat6""></button><button class= ""circle deg-3"" id=""bat7""></button></div></div>",0,html-button-response,1.0,23951.0,0.0-0.0-1.0,./songs/beatProductionAudio/beatModified/baseSongs/training/trainingBaseModified.mp3,141,fi,1751654894544.0,1751654863565.0,"bat,tapping",2,1,m12,null,0.0,9.0,2.0,,,34276,data.txt,,,,,,,,,,,,,
2,4407.0,,{'Q0': 3},survey-likert,2.0,28367.0,0.0-0.0-2.0,,141,fi,1751654894544.0,1751654863565.0,"bat,tapping",2,1,m12,null,,,,,,34276,data.txt,,,,,,,,,,,,[0],
3,2353.0,,{'Q0': 3},survey-likert,3.0,30728.0,0.0-0.0-3.0,,141,fi,1751654894544.0,1751654863565.0,"bat,tapping",2,1,m12,null,,,,,,34276,data.txt,,,,,,,,,,,,[0],
0,4287,"<a href=""https://mmbb.ltdk.helsinki.fi/utils/Privacy_Notice_MMBB_eng.pdf"" target=""_blank"">Privacy notice<span class=""new-tab-icon"" aria-hidden=""true""> 🔗</span></a><br><a href=""https://mmbb.ltdk.helsinki.fi/utils/informed_consent_eng.pdf"" target=""_blank"">Informed consent<span class=""new-tab-icon"" aria-hidden=""true""> 🔗</span></a>",0.0,html-button-response,0.0,4289.0,0.0-0.0-0.0,,142,eng,1755868035427.0,1755867862746.0,"bat,tapping",1,0,m12,null,,,,,,37097,data.txt,,,,,,,,,,,,,
1,,,,preload,1.0,4491.0,0.0-0.0-1.0,,142,eng,1755868035427.0,1755867862746.0,"bat,tapping",1,0,m12,null,,,,,,37097,data.txt,,True,False,[],[],[],,,,,,,
2,119729,,,instructions,2.0,124229.0,0.0-0.0-2.0,,142,eng,1755868035427.0,1755867862746.0,"bat,tapping",1,0,m12,null,,,,,,37097,data.txt,"[{'page_index': 0, 'viewing_time': 2454}, {'page_index': 1, 'viewing_time': 6934}, {'page_index': 2, 'viewing_time': 20958}, {'page_index': 1, 'viewing_time': 768}, {'page_index': 0, 'viewing_time': 80358}, {'page_index': 1, 'viewing_time': 3870}, {'page_index': 2, 'viewing_time': 1286}, {'page_index': 3, 'viewing_time': 3102}]",,,,,,,,,,,,
3,26630,,,instructions,3.0,150864.0,0.0-0.0-4.0-0.0,,142,eng,1755868035427.0,1755867862746.0,"bat,tapping",1,0,m12,null,,,,,,37097,data.txt,"[{'page_index': 0, 'viewing_time': 7106}, {'page_index': 1, 'viewing_time': 3504}, {'page_index': 2, 'viewing_time': 3407}, {'page_index': 3, 'viewing_time': 3209}, {'page_index': 4, 'viewing_time': 5027}, {'page_index': 5, 'viewing_time': 4378}]",,,,,,,,,,,,
4,[19159.999999999996],./songs/movementTapAudio/elPesebre.mp3,0.0,audio-button-response,4.0,170075.0,0.0-0.0-5.0-0.0,,142,eng,1755868035427.0,1755867862746.0,"bat,tapping",1,0,m12,null,,,,,,37097,data.txt,,,,,,,[19206],0.01,0.01,0.04,0.048,,
5,1686,Is someone helping you to complete this task?,0.0,html-button-response,5.0,172573.0,0.0-0.0-7.0,,142,eng,1755868035427.0,1755867862746.0,"bat,tapping",1,0,m12,null,,,,,,37097,data.txt,,,,,,,,,,,,,
0,1994.0,"<img id=""logoLoading"" src=""./images/loading2.gif""><br>Loading...",0,html-button-response,0.0,1997.0,0.0-0.0-0.0,./songs/beatProductionAudio/beatModified/baseSongs/floorplanNoLie/floorplanNoLieModifiedLow.mp3,m12_100,fi,1743518957883.0,1743518919042.0,"tapping,bat",3,5,m12,null,,,,,,24646,data.txt,,,,,,,,,,,,,
1,34317.0,"<div id=""titleBAT"">Säädä tahdistusta<br></div><div id=""loading-bar""><div id=""progress-bar""></div></div><div class=""circle""><div id=""firstRowCircle""><button class= ""circle deg-4"" id=""bat0""></button><button class= ""circle deg-5"" id=""bat1""></button><button class= ""circle deg-6"" id=""bat2""></button></div><div id=""secondRowCircle""><button class= ""circle deg-7"" id=""bat3""></button><button class= ""circle deg-0"" id=""bat4""></button></div><div id=""thirdRowCircle""><button class= ""circle deg-1"" id=""bat5""></button><button class= ""circle deg-2"" id=""bat6""></button><button class= ""circle deg-3"" id=""bat7""></button></div></div>",0,html-button-response,1.0,36315.0,0.0-0.0-1.0,./songs/beatProductionAudio/beatModified/baseSongs/floorplanNoLie/floorplanNoLieModifiedLow.mp3,m12_100,fi,1743518957883.0,1743518919042.0,"tapping,bat",3,5,m12,null,0.0,3.0,7.0,,,24646,data.txt,,,,,,,,,,,,,
2,1460.0,,{'Q0': 3},survey-likert,2.0,37777.0,0.0-0.0-2.0,,m12_100,fi,1743518957883.0,1743518919042.0,"tapping,bat",3,5,m12,null,,,,,,24646,data.txt,,,,,,,,,,,,[0],
3,783.0,,{'Q0': 3},survey-likert,3.0,38567.0,0.0-0.0-3.0,,m12_100,fi,1743518957883.0,1743518919042.0,"tapping,bat",3,5,m12,null,,,,,,24646,data.txt,,,,,,,,,,,,[0],
0,2802.0,,,instructions,0.0,2803.0,0.0-0.0-0.0,,m12_100,fi,1743518733437.0,1743518672972.0,"tapping,bat",3,0,m12,null,,,,,,24641,data.txt,"[{'page_index': 0, 'viewing_time': 2801}]",,,,,,,,,,,,
1,57418.0,,,instructions,1.0,60220.0,0.0-0.0-1.0,,m12_100,fi,1743518733437.0,1743518672972.0,"tapping,bat",3,0,m12,null,,,,,,24641,data.txt,"[{'page_index': 0, 'viewing_time': 5116}, {'page_index': 1, 'viewing_time': 9215}, {'page_index': 2, 'viewing_time': 2307}, {'page_index': 3, 'viewing_time': 2109}, {'page_index': 4, 'viewing_time': 10820}, {'page_index': 5, 'viewing_time': 9064}, {'page_index': 6, 'viewing_time': 3162}, {'page_index': 7, 'viewing_time': 6187}, {'page_index': 8, 'viewing_time': 1493}, {'page_index': 9, 'viewing_time': 4842}, {'page_index': 10, 'viewing_time': 3103}]",,,,,,,,,,,,
0,1272,"<a href=""https://mmbb.ltdk.helsinki.fi/utils/Privacy_Notice_MMBB_fi.pdf"" target=""_blank"">Tietosuojailmoitus<span class=""new-tab-icon"" aria-hidden=""true""> 🔗</span></a><br><a href=""https://mmbb.ltdk.helsinki.fi/utils/informed_consent_fi.pdf"" target=""_blank"">Tiedote Tutkimuksesta<span class=""new-tab-icon"" aria-hidden=""true""> 🔗</span></a>",0.0,html-button-response,0.0,1278.0,0.0-0.0-0.0,,148,fi,1751209283507.0,1751209260436.0,"bat,tapping",1,0,m12,null,,,,,,33895,data.txt,,,,,,,,,,,,,
1,,,,preload,1.0,2439.0,0.0-0.0-1.0,,148,fi,1751209283507.0,1751209260436.0,"bat,tapping",1,0,m12,null,,,,,,33895,data.txt,,True,False,[],[],[],,,,,,,
2,9149,,,instructions,2.0,11590.0,0.0-0.0-2.0,,148,fi,1751209283507.0,1751209260436.0,"bat,tapping",1,0,m12,null,,,,,,33895,data.txt,"[{'page_index': 0, 'viewing_time': 2187}, {'page_index': 1, 'viewing_time': 1894}, {'page_index': 2, 'viewing_time': 3339}, {'page_index': 3, 'viewing_time': 1728}]",,,,,,,,,,,,
3,5922,,,instructions,3.0,17514.0,0.0-0.0-4.0-0.0,,148,fi,1751209283507.0,1751209260436.0,"bat,tapping",1,0,m12,null,,,,,,33895,data.txt,"[{'page_index': 0, 'viewing_time': 2583}, {'page_index': 1, 'viewing_time': 733}, {'page_index': 2, 'viewing_time': 518}, {'page_index': 3, 'viewing_time': 497}, {'page_index': 4, 'viewing_time': 534}, {'page_index': 5, 'viewing_time': 1057}]",,,,,,,,,,,,
4,[1034.6666666666665],./songs/movementTapAudio/elPesebre.mp3,0.0,audio-button-response,4.0,18561.0,0.0-0.0-6.0-0.0,,148,fi,1751209283507.0,1751209260436.0,"bat,tapping",1,0,m12,null,,,,,,33895,data.txt,,,,,,,[1041],0.004,0.004,0.036000000000000004,0.036000000000000004,,
5,3022,Auttaako joku sinua tämän tehtävän suorittamisessa?,0.0,html-button-response,5.0,22388.0,0.0-0.0-7.0,,148,fi,1751209283507.0,1751209260436.0,"bat,tapping",1,0,m12,null,,,,,,33895,data.txt,,,,,,,,,,,,,
0,773.0,"<img id=""logoLoading"" src=""./images/loading2.gif""><br>Loading...",0,html-button-response,0.0,780.0,0.0-0.0-0.0,./songs/beatProductionAudio/beatModified/baseSongs/training/trainingBaseModified.mp3,142,fi,1759936617839.0,1759936590616.0,"tapping,bat",3,1,m12,null,,,,,,38025,data.txt,,,,,,,,,,,,,
1,21273.0,"<div id=""titleBAT"">Säädä tahdistusta<br></div><div id=""loading-bar""><div id=""progress-bar""></div></div><div class=""circle""><div id=""firstRowCircle""><button class= ""circle deg-4"" id=""bat0""></button><button class= ""circle deg-5"" id=""bat1""></button><button class= ""circle deg-6"" id=""bat2""></button></div><div id=""secondRowCircle""><button class= ""circle deg-7"" id=""bat3""></button><button class= ""circle deg-0"" id=""bat4""></button></div><div id=""thirdRowCircle""><button class= ""circle deg-1"" id=""bat5""></button><button class= ""circle deg-2"" id=""bat6""></button><button class= ""circle deg-3"" id=""bat7""></button></div></div>",0,html-button-response,1.0,22055.0,0.0-0.0-1.0,./songs/beatProductionAudio/beatModified/baseSongs/training/trainingBaseModified.mp3,142,fi,1759936617839.0,1759936590616.0,"tapping,bat",3,1,m12,null,1.0,8.0,7.0,,,38025,data.txt,,,,,,,,,,,,,
2,3096.0,,{'Q0': 4},survey-likert,2.0,25154.0,0.0-0.0-2.0,,142,fi,1759936617839.0,1759936590616.0,"tapping,bat",3,1,m12,null,,,,,,38025,data.txt,,,,,,,,,,,,[0],
3,1771.0,,{'Q0': 4},survey-likert,3.0,26928.0,0.0-0.0-3.0,,142,fi,1759936617839.0,1759936590616.0,"tapping,bat",3,1,m12,null,,,,,,38025,data.txt,,,,,,,,,,,,[0],
0,1872.0,"<img id=""logoLoading"" src=""./images/loading2.gif""><br>Loading...",0,html-button-response,0.0,1877.0,0.0-0.0-0.0,./songs/beatProductionAudio/beatModified/baseSongs/eclecticElectric/eclecticElectricModifiedLow.mp3,m12_100,fi,1743519072674.0,1743519013526.0,"tapping,bat",3,7,m12,null,,,,,,24648,data.txt,,,,,,,,,,,,,
1,53921.0,"<div id=""titleBAT"">Säädä tahdistusta<br></div><div id=""loading-bar""><div id=""progress-bar""></div></div><div class=""circle""><div id=""firstRowCircle""><button class= ""circle deg-4"" id=""bat0""></button><button class= ""circle deg-5"" id=""bat1""></button><button class= ""circle deg-6"" id=""bat2""></button></div><div id=""secondRowCircle""><button class= ""circle deg-7"" id=""bat3""></button><button class= ""circle deg-0"" id=""bat4""></button></div><div id=""thirdRowCircle""><button class= ""circle deg-1"" id=""bat5""></button><button class= ""circle deg-2"" id=""bat6""></button><button class= ""circle deg-3"" id=""bat7""></button></div></div>",0,html-button-response,1.0,55797.0,0.0-0.0-1.0,./songs/beatProductionAudio/beatModified/baseSongs/eclecticElectric/eclecticElectricModifiedLow.mp3,m12_100,fi,1743519072674.0,1743519013526.0,"tapping,bat",3,7,m12,null,0.0,2.0,7.0,,,24648,data.txt,,,,,,,,,,,,,
2,1904.0,,{'Q0': 3},survey-likert,2.0,57703.0,0.0-0.0-2.0,,m12_100,fi,1743519072674.0,1743519013526.0,"tapping,bat",3,7,m12,null,,,,,,24648,data.txt,,,,,,,,,,,,[0],
3,1176.0,,{'Q0': 3},survey-likert,3.0,58886.0,0.0-0.0-3.0,,m12_100,fi,1743519072674.0,1743519013526.0,"tapping,bat",3,7,m12,null,,,,,,24648,data.txt,,,,,,,,,,,,[0],
0,246.0,"<img id=""logoLoading"" src=""./images/loading2.gif""><br>Loading...",0,html-button-response,0.0,247.0,0.0-0.0-0.0,./songs/beatProductionAudio/beatModified/baseSongs/training/trainingBaseModified.mp3,142,eng,1755868181515.0,1755868131620.0,"bat,tapping",2,1,m12,null,,,,,,37099,data.txt,,,,,,,,,,,,,
1,37575.0,"<div id=""titleBAT"">Adjust the beat<br></div><div id=""loading-bar""><div id=""progress-bar""></div></div><div class=""circle""><div id=""firstRowCircle""><button class= ""circle deg-4"" id=""bat0""></button><button class= ""circle deg-5"" id=""bat1""></button><button class= ""circle deg-6"" id=""bat2""></button></div><div id=""secondRowCircle""><button class= ""circle deg-7"" id=""bat3""></button><button class= ""circle deg-0"" id=""bat4""></button></div><div id=""thirdRowCircle""><button class= ""circle deg-1"" id=""bat5""></button><button class= ""circle deg-2"" id=""bat6""></button><button class= ""circle deg-3"" id=""bat7""></button></div></div>",0,html-button-response,1.0,37823.0,0.0-0.0-1.0,./songs/beatProductionAudio/beatModified/baseSongs/training/trainingBaseModified.mp3,142,eng,1755868181515.0,1755868131620.0,"bat,tapping",2,1,m12,null,4.0,10.0,7.0,,,37099,data.txt,,,,,,,,,,,,,
2,5904.0,,{'Q0': 3},survey-likert,2.0,43729.0,0.0-0.0-2.0,,142,eng,1755868181515.0,1755868131620.0,"bat,tapping",2,1,m12,null,,,,,,37099,data.txt,,,,,,,,,,,,[0],
3,6032.0,,{'Q0': 1},survey-likert,3.0,49762.0,0.0-0.0-3.0,,142,eng,1755868181515.0,1755868131620.0,"bat,tapping",2,1,m12,null,,,,,,37099,data.txt,,,,,,,,,,,,[0],
0,1728.0,"<img id=""logoLoading"" src=""./images/loading2.gif""><br>Loading...",0,html-button-response,0.0,1732.0,0.0-0.0-0.0,./songs/beatProductionAudio/beatModified/baseSongs/honeySuckle/honeysuckleRoseModifiedLow.mp3,141,fi,1751655004156.0,1751654935176.0,"bat,tapping",2,3,m12,null,,,,,,34278,data.txt,,,,,,,,,,,,,
1,63185.0,"<div id=""titleBAT"">Säädä tahdistusta<br></div><div id=""loading-bar""><div id=""progress-bar""></div></div><div class=""circle""><div id=""firstRowCircle""><button class= ""circle deg-4"" id=""bat0""></button><button class= ""circle deg-5"" id=""bat1""></button><button class= ""circle deg-6"" id=""bat2""></button></div><div id=""secondRowCircle""><button class= ""circle deg-7"" id=""bat3""></button><button class= ""circle deg-0"" id=""bat4""></button></div><div id=""thirdRowCircle""><button class= ""circle deg-1"" id=""bat5""></button><button class= ""circle deg-2"" id=""bat6""></button><button class= ""circle deg-3"" id=""bat7""></button></div></div>",0,html-button-response,1.0,64920.0,0.0-0.0-1.0,./songs/beatProductionAudio/beatModified/baseSongs/honeySuckle/honeysuckleRoseModifiedLow.mp3,141,fi,1751655004156.0,1751654935176.0,"bat,tapping",2,3,m12,null,0.0,13.0,2.0,,,34278,data.txt,,,,,,,,,,,,,
2,2005.0,,{'Q0': 2},survey-likert,2.0,66930.0,0.0-0.0-2.0,,141,fi,1751655004156.0,1751654935176.0,"bat,tapping",2,3,m12,null,,,,,,34278,data.txt,,,,,,,,,,,,[0],
3,1728.0,,{'Q0': 2},survey-likert,3.0,68666.0,0.0-0.0-3.0,,141,fi,1751655004156.0,1751654935176.0,"bat,tapping",2,3,m12,null,,,,,,34278,data.txt,,,,,,,,,,,,[0],
0,11751,"<iframe src=""../src/utils/Privacy_Notice_MMBB_fi.pdf"" width=""100%"" height=""600px"" loading=""lazy"" title=""PDF-file"" ></iframe>",0.0,html-button-response,0.0,11757.0,0.0-0.0-0.0,,m12_100,fi,1743582960092.0,1743582907332.0,"tapping,bat",1,0,m12,null,,,,,,24683,data.txt,,,,,,,,,,,,,
1,9982,"<iframe src=""../src/utils/informed_consent_fi.pdf"" width=""100%"" height=""600px"" loading=""lazy"" title=""PDF-file"" ></iframe>",0.0,html-button-response,1.0,21743.0,0.0-0.0-1.0,,m12_100,fi,1743582960092.0,1743582907332.0,"tapping,bat",1,0,m12,null,,,,,,24683,data.txt,,,,,,,,,,,,,
2,,,,preload,2.0,22657.0,0.0-0.0-2.0,,m12_100,fi,1743582960092.0,1743582907332.0,"tapping,bat",1,0,m12,null,,,,,,24683,data.txt,,True,False,[],[],[],,,,,,,
3,11925,,,instructions,3.0,34583.0,0.0-0.0-3.0,,m12_100,fi,1743582960092.0,1743582907332.0,"tapping,bat",1,0,m12,null,,,,,,24683,data.txt,"[{'page_index': 0, 'viewing_time': 1209}, {'page_index': 1, 'viewing_time': 3449}, {'page_index': 2, 'viewing_time': 5567}, {'page_index': 3, 'viewing_time': 1700}]",,,,,,,,,,,,
4,9482,,,instructions,4.0,44067.0,0.0-0.0-4.0-0.0,,m12_100,fi,1743582960092.0,1743582907332.0,"tapping,bat",1,0,m12,null,,,,,,24683,data.txt,"[{'page_index': 0, 'viewing_time': 1582}, {'page_index': 1, 'viewing_time': 1450}, {'page_index': 2, 'viewing_time': 1700}, {'page_index': 3, 'viewing_time': 1317}, {'page_index': 4, 'viewing_time': 1966}, {'page_index': 5, 'viewing_time': 1467}]",,,,,,,,,,,,
5,[4565.333333333331],./songs/movementTapAudio/elPesebre.mp3,0.0,audio-button-response,5.0,48639.0,0.0-0.0-6.0-0.0,,m12_100,fi,1743582960092.0,1743582907332.0,"tapping,bat",1,0,m12,null,,,,,,24683,data.txt,,,,,,,[4565],0.0026666666666666666,0.0026666666666666666,0.0115,0.0115,,
6,3160,Auttaako joku sinua tämän tehtävän suorittamisessa?,0.0,html-button-response,6.0,52601.0,0.0-0.0-8.0,,m12_100,fi,1743582960092.0,1743582907332.0,"tapping,bat",1,0,m12,null,,,,,,24683,data.txt,,,,,,,,,,,,,
0,3032,,,instructions,0.0,3033.0,0.0-0.0-0.0,,m12_100,fi,1743583242875.0,1743582960561.0,"tapping,bat",2,0,m12,null,,,,,,24684,data.txt,"[{'page_index': 0, 'viewing_time': 3032}]",,,,,,,,,,,,
1,,,,preload,1.0,4301.0,0.0-0.0-1.0,,m12_100,fi,1743583242875.0,1743582960561.0,"tapping,bat",2,0,m12,null,,,,,,24684,data.txt,,True,False,[],[],[],,,,,,,
2,8326,,,instructions,2.0,12628.0,0.0-0.0-2.0,,m12_100,fi,1743583242875.0,1743582960561.0,"tapping,bat",2,0,m12,null,,,,,,24684,data.txt,"[{'page_index': 0, 'viewing_time': 1442}, {'page_index': 1, 'viewing_time': 5603}, {'page_index': 2, 'viewing_time': 1281}]",,,,,,,,,,,,
3,"[1269.333333333334, 1434.6666666666667, 1618.666666666666, 1768.0000000000007, 1936, 2085.333333333333, 2266.6666666666674, 2434.666666666667, 2599.9999999999995, 2768.000000000001, 2936, 3101.333333333333, 3266.6666666666674, 3434.666666666667, 3618.666666666666, 3784.000000000001, 3952, 4135.999999999999, 4301.333333333334, 4485.333333333333, 4653.333333333334, 4805.333333333333, 4986.666666666666, 5167.999999999999, 5352, 5517.333333333333, 5685.333333333334, 5850.666666666667, 6037.333333333333, 6202.666666666668, 6370.666666666665, 6517.333333333333, 6685.333333333332, 6850.666666666665, 7050.666666666668, 7218.666666666668, 7402.666666666665, 7584, 7751.999999999999, 7917.333333333332, 8117.333333333335, 8434.666666666664, 8786.666666666666, 9285.333333333334, 10536.000000000002, 11320, 11517.333333333334, 11704, 11850.666666666666, 12018.666666666668, 12335.999999999998, 12517.333333333334, 12685.333333333332, 13018.666666666668, 13301.333333333332, 13552, 13754.666666666666, 13936, 14168, 14418.666666666666, 14938.666666666666, 15104, 15285.333333333334, 15653.333333333332, 15834.666666666668, 15986.666666666668, 16352, 16520, 16685.333333333332, 17018.666666666668, 17368, 17736, 18053.333333333336, 18352, 18685.333333333332, 19002.666666666668, 19186.666666666668, 19354.666666666668, 19685.333333333332, 20002.666666666668, 20304, 20520, 20669.333333333336, 20853.333333333332, 21018.666666666668, 21336, 21685.333333333332, 22037.333333333332, 22234.666666666664, 22368.000000000004, 22720, 23034.666666666668, 23368.000000000004, 23752.000000000004, 23885.333333333336, 24069.333333333332, 24370.666666666664, 24986.666666666664, 25904.000000000004, 26269.333333333336, 28104, 28368.000000000004]",./songs/movementTapAudio/silence.wav,0,audio-button-response,3.0,42762.0,0.0-0.0-3.0,,m12_100,fi,1743583242875.0,1743582960561.0,"tapping,bat",2,0,m12,null,,,,,,24684,data.txt,,,,,,,"[1268.9999999999982, 1433.9999999999982, 1616.9999999999982, 1766.9999999999982, 1933.9999999999982, 2082.999999999998, 2266, 2432.999999999998, 2599.999999999998, 2766.999999999998, 2933.999999999998, 3099.999999999998, 3265.999999999998, 3433.999999999998, 3616.999999999998, 3782.999999999998, 3950.999999999998, 4133.999999999998, 4299.999999999998, 4483.999999999998, 4650.999999999998, 4803.999999999998, 4984.999999999998, 5166.999999999998, 5351.999999999998, 5516.999999999998, 5684.999999999998, 5849.999999999998, 6035.999999999998, 6200.999999999998, 6367.999999999998, 6516.999999999998, 6684.999999999998, 6849.999999999998, 7049.999999999998, 7216.999999999998, 7399.999999999998, 7582.999999999998, 7749.999999999998, 7916.999999999998, 8116.999999999998, 8433.999999999998, 8784.999999999998, 9283.999999999998, 10533.999999999998, 11317.999999999998, 11516.999999999998, 11701.999999999998, 11849.999999999998, 12017.999999999998, 12333.999999999998, 12517.000000000002, 12683.999999999998, 13017.000000000002, 13299.999999999998, 13550.999999999998, 13752.999999999998, 13933.999999999998, 14168.000000000002, 14416.999999999998, 14937.999999999998, 15102.999999999998, 15284.999999999998, 15651.999999999998, 15833.999999999998, 15985.999999999998, 16351.000000000002, 16518, 16685, 17017, 17367, 17735, 18051, 18351, 18685, 19002, 19184.999999999993, 19352, 19685, 20002, 20302, 20519, 20668, 20851, 21018, 21335.000000000007, 21685, 22036.000000000007, 22234, 22368, 22719.000000000007, 23034, 23367, 23751, 23885, 24069, 24369, 24986, 25902.000000000007, 26269, 28102, 28368]",0.0026666666666666666,0.0026666666666666666,0.0115,0.0115,,
4,,,,html-button-response,4.0,45767.0,0.0-0.0-4.0,,m12_100,fi,1743583242875.0,1743582960561.0,"tapping,bat",2,0,m12,null,,,,,,24684,data.txt,,,,,,,,,,,,,
5,8614,,{'Q0': 0},survey-likert,5.0,54385.0,0.0-0.0-5.0,,m12_100,fi,1743583242875.0,1743582960561.0,"tapping,bat",2,0,m12,null,,,,,,24684,data.txt,,,,,,,,,,,,[0],
6,82648,,,instructions,6.0,137034.0,0.0-0.0-6.0,,m12_100,fi,1743583242875.0,1743582960561.0,"tapping,bat",2,0,m12,null,,,,,,24684,data.txt,"[{'page_index': 0, 'viewing_time': 1909}, {'page_index': 1, 'viewing_time': 1916}, {'page_index': 2, 'viewing_time': 78822}]",,,,,,,,,,,,
7,"[1181.3333333333276, 1629.333333333335, 2080.0000000000127, 2797.333333333341, 3280.000000000001, 3647.9999999999964, 3962.666666666678, 4229.333333333329, 4629.333333333335, 5098.666666666673, 5429.333333333347, 5912.000000000006, 6429.333333333347, 7029.333333333341, 7613.333333333344, 8213.333333333338, 8730.666666666679, 9197.333333333347, 9629.333333333336, 10146.666666666675, 10695.999999999998, 11080.000000000013, 11562.666666666672, 11997.33333333333, 12512, 13096.000000000004, 13546.66666666668, 13848.000000000013, 14264.000000000011, 14664.000000000016, 15080.000000000013, 15480.000000000018, 15816.000000000002, 16213.333333333338, 16565.333333333343, 16879.999999999996, 17197.333333333347, 17496.00000000001, 17781.33333333335, 18114.666666666664, 18362.666666666682, 18613.333333333343, 18829.33333333335, 19063.999999999993, 19429.333333333347, 19664.000000000015, 19965.333333333347, 20197.333333333347, 20415.999999999996, 20647.999999999996, 20879.999999999996, 21114.666666666664, 21346.666666666664, 21597.333333333354, 21781.33333333335, 21962.66666666668, 22165.333333333336, 22381.333333333343, 22581.333333333332, 22781.33333333335, 22965.333333333347, 23146.666666666675, 23365.333333333354, 23565.333333333343, 23781.33333333335, 23997.33333333333, 24381.333333333343, 24613.333333333343, 24898.666666666686, 25114.666666666664, 25330.66666666667, 25546.666666666682, 25746.66666666667, 25949.33333333333, 26146.666666666675, 26349.333333333336, 26530.66666666666, 26781.33333333335, 27013.33333333335, 27216.000000000007, 27432.000000000015, 27664.000000000015, 27879.999999999996, 28080.00000000001, 28298.66666666666, 28514.66666666667, 28714.66666666666, 28930.666666666668, 29130.666666666686, 29381.333333333343, 29632.000000000004, 29848.000000000015, 30048, 30266.66666666668, 30464, 30666.666666666686, 30898.666666666686, 31114.666666666664, 31314.666666666682, 31514.66666666667, 31730.66666666668, 31930.666666666668, 32165.333333333336, 32381.333333333343, 32597.333333333354, 32813.333333333336, 33013.33333333335, 33232, 33448.00000000001, 33680.00000000001, 33930.666666666664, 34149.33333333334, 34365.33333333335, 34599.99999999999, 34831.99999999999, 35050.66666666667, 35264.00000000001, 35498.66666666668, 35730.66666666668, 35949.33333333333, 36298.666666666664, 36514.66666666667, 36714.66666666666, 36930.666666666664, 37165.333333333336, 37384.000000000015, 37647.99999999999, 37866.66666666667, 38114.666666666664, 38330.66666666667, 38565.33333333334, 39130.666666666686, 39800.000000000015, 40050.66666666667, 40266.66666666668, 40466.66666666667, 40781.33333333335, 41349.333333333336, 41597.33333333335, 42333.33333333334, 42549.33333333335, 42816, 43048, 43282.66666666667, 43831.99999999999, 44032.00000000001, 44349.333333333336, 44965.33333333335, 45200.000000000015, 45416, 45647.99999999999, 45848.000000000015, 46098.66666666667, 46314.66666666668, 46549.33333333335, 46749.33333333334, 46984.00000000001, 47216.00000000001, 47517.33333333334, 47781.33333333335, 48032.00000000001, 48285.33333333334, 48549.33333333335, 48864.00000000001, 49117.333333333336, 49498.66666666668, 49816, 50063.99999999999, 50336.000000000015, 50549.33333333335, 50898.666666666686, 51450.66666666668, 51682.66666666668, 51917.33333333334, 52133.33333333333, 52400.00000000001, 52783.99999999999, 53000, 53482.66666666666, 53781.33333333335, 54050.66666666667, 54282.66666666667, 54501.33333333335, 54749.33333333334, 55000, 55234.66666666667, 55466.66666666667, 55701.333333333336, 55917.33333333334, 56149.33333333334, 56384.000000000015, 56632.00000000001, 56949.33333333333, 57266.66666666668, 57549.33333333335, 57800.000000000015, 58098.66666666667, 58367.99999999999, 61984.00000000001, 62301.33333333333, 62533.33333333333, 62752.00000000001]",./songs/movementTapAudio/modifiedAudio/name__11 - metronome_const_tempo__stretchfactor__1__0_75188__1_25.mp3,0,audio-button-response,7.0,200036.0,0.0-0.0-7.0,,m12_100,fi,1743583242875.0,1743582960561.0,"tapping,bat",2,0,m12,null,,,,,,24684,data.txt,,,,,,,"[1182, 1630, 2079.000000000029, 2797, 3279, 3647, 3962, 4229, 4630, 5098, 5430.000000000029, 5913, 6430.000000000029, 7030, 7613, 8213, 8731, 9196, 9630, 10147, 10697, 11080, 11563, 11997, 12513, 13097.00000000003, 13546, 13848, 14263, 14664, 15081, 15481, 15815, 16214, 16564, 16880, 17197, 17497, 17781, 18115, 18363, 18613, 18830, 19064, 19430.00000000003, 19664, 19965, 20197, 20415, 20648, 20880, 21114, 21347.00000000003, 21597.00000000003, 21780, 21964, 22164, 22381, 22580, 22781, 22964, 23147, 23365, 23564, 23780, 23997, 24382, 24614, 24898, 25115, 25331, 25547, 25747, 25949, 26147, 26348, 26531, 26781, 27014, 27215, 27431, 27664, 27881, 28080, 28298, 28515, 28714, 28931, 29131, 29381, 29631, 29847.00000000003, 30048, 30266, 30464, 30665, 30898, 31114, 31314, 31515, 31731, 31931, 32166, 32382, 32598, 32814, 33014, 33231, 33448.00000000003, 33681, 33932, 34148, 34365.00000000003, 34599, 34831, 35049.00000000003, 35265, 35499, 35731, 35949, 36299.00000000003, 36514, 36716.00000000003, 36931, 37165, 37383, 37648, 37866, 38115.00000000003, 38332, 38565, 39131, 39799.00000000003, 40049.00000000003, 40268, 40465, 40781, 41348, 41598, 42332, 42548, 42815, 43048, 43282, 43832, 44032, 44348, 44965, 45198.00000000003, 45416, 45649, 45848, 46099, 46315, 46548, 46749, 46983, 47215, 47517, 47782, 48032, 48284, 48548, 48865.00000000003, 49117, 49499, 49816, 50064, 50335.00000000003, 50549.00000000003, 50899, 51450, 51683, 51916, 52132, 52399, 52783, 53000, 53482, 53782, 54050, 54282, 54500, 54749, 54999, 55234.00000000003, 55466.00000000003, 55700, 55916, 56149, 56383, 56633, 56949, 57266, 57549.00000000003, 57800, 58099, 58367, 61984.00000000003, 62301, 62533, 62750]",0.0026666666666666666,0.0026666666666666666,0.0115,0.0115,,
8,,,,html-button-response,8.0,203043.0,0.0-0.0-8.0,,m12_100,fi,1743583242875.0,1743582960561.0,"tapping,bat",2,0,m12,null,,,,,,24684,data.txt,,,,,,,,,,,,,
9,6063,,{'Q0': 2},survey-likert,9.0,209109.0,0.0-0.0-9.0,,m12_100,fi,1743583242875.0,1743582960561.0,"tapping,bat",2,0,m12,null,,,,,,24684,data.txt,,,,,,,,,,,,[0],
10,6824,,,instructions,10.0,215937.0,0.0-0.0-10.0,,m12_100,fi,1743583242875.0,1743582960561.0,"tapping,bat",2,0,m12,null,,,,,,24684,data.txt,"[{'page_index': 0, 'viewing_time': 5573}, {'page_index': 1, 'viewing_time': 1251}]",,,,,,,,,,,,
11,"[2133.333333333354, 2248.000000000019, 2362.6666666666833, 2480.000000000018, 2581.333333333333, 2949.3333333333567, 3064.0000000000214, 3216.000000000008, 3346.6666666666642, 3480.000000000018, 3997.3333333333303, 4133.333333333354, 4280.000000000001, 4397.333333333336, 4765.33333333333, 4879.999999999995, 5048.000000000002, 5162.666666666666, 5298.666666666662, 5714.666666666688, 5962.666666666678, 9514.66666666667, 9816.000000000002, 10216.000000000007, 10698.666666666668, 11165.333333333336, 11613.333333333343, 12064.000000000022, 12565.333333333343, 13016.00000000002, 13463.999999999998, 13882.666666666666, 14330.666666666673, 14813.333333333332, 15282.666666666672, 17000, 17130.666666666686, 17264.00000000001, 17381.333333333343, 17514.66666666667, 17632.000000000004, 17746.66666666667, 17864.000000000004, 17997.33333333333, 18130.666666666686, 18264.00000000001, 18397.333333333336, 18533.333333333332, 18664.000000000015, 18800.00000000001, 18949.333333333358, 19082.666666666682, 19216.000000000007, 19365.333333333354, 19498.66666666668, 19632.000000000004, 24800.00000000001, 25032.00000000001, 25632.000000000004, 26248.00000000002, 26848.000000000015, 27149.333333333347, 27432.000000000015, 27997.33333333333, 28330.66666666667, 29149.333333333347, 29384.000000000015, 29616.000000000015, 29816.000000000004, 30016.00000000002, 30200.00000000002, 30400.000000000007, 30584.000000000004, 30832.000000000022, 31050.66666666667, 31248.00000000002, 31450.66666666668, 31666.666666666686, 31882.666666666664, 32117.333333333336, 32616.000000000015, 32765.333333333332, 32933.333333333336, 33082.666666666686, 33234.66666666667, 33400.00000000001, 33549.33333333335, 33714.666666666686, 33882.666666666664, 34032.00000000001, 34200.000000000015, 34368.00000000002, 34533.33333333333, 34698.66666666667, 34866.66666666667, 35048, 35298.666666666664, 35501.33333333335, 35682.66666666668, 35850.666666666686, 36082.666666666686, 36248.00000000002, 36400.00000000001, 36584, 36749.33333333334, 36933.333333333336, 37114.666666666664, 37282.66666666667, 37450.66666666668, 37618.666666666686, 37800.000000000015, 37981.333333333336, 38149.33333333334, 38314.66666666668, 38466.66666666667, 38682.66666666668, 38898.666666666686, 39234.66666666667, 39533.33333333333, 39800.000000000015, 40016.00000000002, 40250.666666666686, 40466.66666666667, 40666.666666666686, 40850.666666666686, 41450.66666666668, 41717.33333333333, 41917.33333333334, 42117.333333333336, 42333.33333333334, 42533.33333333333, 42717.33333333333, 42898.666666666686, 43082.666666666686, 43266.66666666668, 43450.66666666665, 43634.66666666667, 44133.33333333336, 44434.666666666686, 45266.66666666668, 45549.33333333335, 45866.6666666667, 46184, 46599.99999999999, 47317.33333333332, 47549.33333333335, 48082.66666666666, 48282.6666666667, 48498.66666666665, 49650.66666666669, 49885.333333333365, 50101.333333333314, 50301.33333333336, 50501.33333333335, 50682.66666666668, 51434.666666666686, 51666.66666666666]",./songs/movementTapAudio/modifiedAudio/name__7 - El Pesebre - Afrosound__stretchfactor__0_72932__0_97__1_2125.mp3,0,audio-button-response,11.0,278940.0,0.0-0.0-11.0,,m12_100,fi,1743583242875.0,1743582960561.0,"tapping,bat",2,0,m12,null,,,,,,24684,data.txt,,,,,,,"[2131, 2246, 2362, 2479, 2579.000000000029, 2947, 3062, 3214, 3346, 3479, 3996, 4131, 4280, 4396, 4763.000000000029, 4879, 5046, 5162.000000000029, 5297, 5714, 5962, 9513.00000000003, 9814, 10213, 10698.00000000003, 11164, 11613, 12064, 12564, 13013.00000000003, 13463, 13880, 14330, 14812, 15281.00000000003, 16997, 17130, 17263.00000000003, 17380, 17513.00000000003, 17631, 17746, 17863, 17996, 18130, 18263.00000000003, 18396, 18531.00000000003, 18663, 18797, 18949, 19080, 19213, 19363, 19497, 19631, 24798, 25031.00000000003, 25630, 26247, 26847.00000000003, 27147, 27430.00000000003, 27997, 28330, 29147, 29382.00000000003, 29615.00000000003, 29814, 30014, 30197, 30398, 30582, 30831, 31048, 31247, 31448.00000000003, 31665, 31881, 32115.00000000003, 32614, 32764, 32932, 33080, 33232, 33398, 33547, 33714, 33881, 34031.00000000003, 34197, 34365.00000000003, 34531.00000000003, 34698.00000000003, 34864, 35047, 35298, 35499, 35681, 35848, 36081, 36247, 36398, 36581, 36747, 36931, 37114, 37281.00000000003, 37448.00000000003, 37616, 37798, 37981, 38148, 38314, 38465, 38681, 38897, 39232, 39531.00000000003, 39797.99999999997, 40015.00000000003, 40248.00000000003, 40465, 40664.00000000003, 40848, 41448.00000000003, 41716, 41915, 42115, 42331, 42531, 42715, 42898, 43081, 43265.00000000003, 43448.00000000003, 43632, 44131, 44432, 45265.00000000003, 45547.99999999997, 45865, 46181, 46598, 47315, 47548, 48082.00000000006, 48282, 48498, 49648, 49882, 50098, 50298, 50500, 50681, 51434, 51666]",0.0026666666666666666,0.0026666666666666666,0.0115,0.0115,,
12,3284,,{'Q0': ''},survey-likert,12.0,282228.0,0.0-0.0-12.0,,m12_100,fi,1743583242875.0,1743582960561.0,"tapping,bat",2,0,m12,null,,,,,,24684,data.txt,,,,,,,,,,,,[0],
0,2154.0,"<img id=""logoLoading"" src=""./images/loading2.gif""><br>Loading...",0,html-button-response,0.0,2157.0,0.0-0.0-0.0,./songs/beatProductionAudio/beatModified/baseSongs/floorplanNoLie/floorplanNoLieModifiedLow.mp3,108,fi,1752612311307.0,1752612260139.0,"tapping,bat",3,5,m12,null,,,,,,35553,data.txt,,,,,,,,,,,,,
1,41799.0,"<div id=""titleBAT"">Säädä tahdistusta<br></div><div id=""loading-bar""><div id=""progress-bar""></div></div><div class=""circle""><div id=""firstRowCircle""><button class= ""circle deg-4"" id=""bat0""></button><button class= ""circle deg-5"" id=""bat1""></button><button class= ""circle deg-6"" id=""bat2""></button></div><div id=""secondRowCircle""><button class= ""circle deg-7"" id=""bat3""></button><button class= ""circle deg-0"" id=""bat4""></button></div><div id=""thirdRowCircle""><button class= ""circle deg-1"" id=""bat5""></button><button class= ""circle deg-2"" id=""bat6""></button><button class= ""circle deg-3"" id=""bat7""></button></div></div>",0,html-button-response,1.0,43958.0,0.0-0.0-1.0,./songs/beatProductionAudio/beatModified/baseSongs/floorplanNoLie/floorplanNoLieModifiedLow.mp3,108,fi,1752612311307.0,1752612260139.0,"tapping,bat",3,5,m12,null,0.0,18.0,3.0,,,35553,data.txt,,,,,,,,,,,,,
2,5341.0,,{'Q0': 2},survey-likert,2.0,49305.0,0.0-0.0-2.0,,108,fi,1752612311307.0,1752612260139.0,"tapping,bat",3,5,m12,null,,,,,,35553,data.txt,,,,,,,,,,,,[0],
3,1461.0,,{'Q0': 1},survey-likert,3.0,50774.0,0.0-0.0-3.0,,108,fi,1752612311307.0,1752612260139.0,"tapping,bat",3,5,m12,null,,,,,,35553,data.txt,,,,,,,,,,,,[0],
0,,,,html-button-response,0.0,1003.0,0.0-0.0-0.0,,m12_100,fi,1745571332924.0,1745571331615.0,"tapping,bat",4,0,m12,null,,,,,,28015,data.txt,,,,,,,,,,,,,
0,2179.0,"<img id=""logoLoading"" src=""./images/loading2.gif""><br>Loading...",0,html-button-response,0.0,2185.0,0.0-0.0-0.0,./songs/beatProductionAudio/beatModified/baseSongs/training/trainingBaseModified.mp3,125,fi,1757791312888.0,1757791280105.0,"tapping,bat",3,1,m12,null,,,,,,37499,data.txt,,,,,,,,,,,,,
1,19928.0,"<div id=""titleBAT"">Säädä tahdistusta<br></div><div id=""loading-bar""><div id=""progress-bar""></div></div><div class=""circle""><div id=""firstRowCircle""><button class= ""circle deg-4"" id=""bat0""></button><button class= ""circle deg-5"" id=""bat1""></button><button class= ""circle deg-6"" id=""bat2""></button></div><div id=""secondRowCircle""><button class= ""circle deg-7"" id=""bat3""></button><button class= ""circle deg-0"" id=""bat4""></button></div><div id=""thirdRowCircle""><button class= ""circle deg-1"" id=""bat5""></button><button class= ""circle deg-2"" id=""bat6""></button><button class= ""circle deg-3"" id=""bat7""></button></div></div>",0,html-button-response,1.0,22115.0,0.0-0.0-1.0,./songs/beatProductionAudio/beatModified/baseSongs/training/trainingBaseModified.mp3,125,fi,1757791312888.0,1757791280105.0,"tapping,bat",3,1,m12,null,2.0,9.0,2.0,,,37499,data.txt,,,,,,,,,,,,,
2,5991.0,,{'Q0': 2},survey-likert,2.0,28113.0,0.0-0.0-2.0,,125,fi,1757791312888.0,1757791280105.0,"tapping,bat",3,1,m12,null,,,,,,37499,data.txt,,,,,,,,,,,,[0],
3,4272.0,,{'Q0': 2},survey-likert,3.0,32389.0,0.0-0.0-3.0,,125,fi,1757791312888.0,1757791280105.0,"tapping,bat",3,1,m12,null,,,,,,37499,data.txt,,,,,,,,,,,,[0],
0,2946.0,"<img id=""logoLoading"" src=""./images/loading2.gif""><br>Loading...",0,html-button-response,0.0,2949.0,0.0-0.0-0.0,./songs/beatProductionAudio/beatModified/baseSongs/softSand/softSandModifiedLow.mp3,108,fi,1752612353864.0,1752612312382.0,"tapping,bat",3,6,m12,null,,,,,,35554,data.txt,,,,,,,,,,,,,
1,35101.0,"<div id=""titleBAT"">Säädä tahdistusta<br></div><div id=""loading-bar""><div id=""progress-bar""></div></div><div class=""circle""><div id=""firstRowCircle""><button class= ""circle deg-4"" id=""bat0""></button><button class= ""circle deg-5"" id=""bat1""></button><button class= ""circle deg-6"" id=""bat2""></button></div><div id=""secondRowCircle""><button class= ""circle deg-7"" id=""bat3""></button><button class= ""circle deg-0"" id=""bat4""></button></div><div id=""thirdRowCircle""><button class= ""circle deg-1"" id=""bat5""></button><button class= ""circle deg-2"" id=""bat6""></button><button class= ""circle deg-3"" id=""bat7""></button></div></div>",0,html-button-response,1.0,38052.0,0.0-0.0-1.0,./songs/beatProductionAudio/beatModified/baseSongs/softSand/softSandModifiedLow.mp3,108,fi,1752612353864.0,1752612312382.0,"tapping,bat",3,6,m12,null,4.0,10.0,7.0,,,35554,data.txt,,,,,,,,,,,,,
2,1764.0,,{'Q0': 2},survey-likert,2.0,39822.0,0.0-0.0-2.0,,108,fi,1752612353864.0,1752612312382.0,"tapping,bat",3,6,m12,null,,,,,,35554,data.txt,,,,,,,,,,,,[0],
3,1183.0,,{'Q0': 1},survey-likert,3.0,41011.0,0.0-0.0-3.0,,108,fi,1752612353864.0,1752612312382.0,"tapping,bat",3,6,m12,null,,,,,,35554,data.txt,,,,,,,,,,,,[0],
0,1933,,,instructions,0.0,1937.0,0.0-0.0-0.0,,125,fi,1757791157868.0,1757790938485.0,"tapping,bat",2,0,m12,null,,,,,,37497,data.txt,"[{'page_index': 0, 'viewing_time': 1932}]",,,,,,,,,,,,
1,,,,preload,1.0,4624.0,0.0-0.0-1.0,,125,fi,1757791157868.0,1757790938485.0,"tapping,bat",2,0,m12,null,,,,,,37497,data.txt,,True,False,[],[],[],,,,,,,
2,13986,,,instructions,2.0,18611.0,0.0-0.0-2.0,,125,fi,1757791157868.0,1757790938485.0,"tapping,bat",2,0,m12,null,,,,,,37497,data.txt,"[{'page_index': 0, 'viewing_time': 5130}, {'page_index': 1, 'viewing_time': 5180}, {'page_index': 2, 'viewing_time': 3676}]",,,,,,,,,,,,
3,"[3669.3333333333308, 4224, 4778.666666666666, 5333.333333333332, 5845.333333333333, 6442.666666666664, 6911.999999999999, 7423.999999999999, 7978.666666666665, 8490.666666666666, 9002.666666666666, 9514.666666666666, 9983.999999999998, 10538.666666666664, 11050.666666666664, 11562.666666666664, 12074.666666666666, 12586.666666666666, 13098.666666666662, 13610.666666666664, 14122.666666666664, 14634.666666666664, 15146.666666666664, 15658.666666666666, 16170.666666666666, 16682.666666666668, 17194.666666666668, 17706.666666666668, 18218.666666666668, 18730.666666666668, 19242.666666666668, 19712, 20224, 20693.333333333332, 21248, 21760, 22272.000000000004, 22741.333333333332, 23253.333333333332, 23765.333333333336, 24277.333333333336, 24789.333333333336, 25215.999999999996, 25770.666666666668, 26282.666666666668, 26837.33333333333, 27306.666666666668, 27861.333333333332, 28373.333333333332, 28842.666666666664, 29312, 29824]",./songs/movementTapAudio/silence.wav,0,audio-button-response,3.0,48909.0,0.0-0.0-3.0,,125,fi,1757791157868.0,1757790938485.0,"tapping,bat",2,0,m12,null,,,,,,37497,data.txt,,,,,,,"[3680.899999976158, 4248, 4781.5, 5351.299999952316, 5869, 6438, 6937.899999976158, 7438.299999952316, 8006, 8507.100000023842, 9008.399999976158, 9511, 10010.399999976158, 10546.899999976158, 11081.899999976158, 11599.299999952316, 12101.199999928474, 12602.399999976158, 13119.600000023842, 13621.899999976158, 14139.799999952316, 14657.399999976158, 15157.600000023842, 15659.699999928474, 16194.299999952316, 16712.399999976158, 17229.699999928474, 17731.699999928474, 18232.799999952316, 18733.600000023842, 19252.100000023842, 19736.600000023842, 20236.699999928474, 20722.199999928474, 21257.199999928474, 21774.600000023842, 22276.399999976158, 22761, 23245.899999976158, 23796.600000023842, 24298.899999976158, 24782.699999928474, 25249.299999952316, 25786.199999928474, 26318.899999976158, 26837, 27339, 27873.699999928474, 28375, 28875.899999976158, 29343.699999928474, 29828.100000023842]",0.042666666666666665,0.042666666666666665,0.11900000000000001,0.11900000000000001,,
4,,,,html-button-response,4.0,51914.0,0.0-0.0-4.0,,125,fi,1757791157868.0,1757790938485.0,"tapping,bat",2,0,m12,null,,,,,,37497,data.txt,,,,,,,,,,,,,
5,4478,,{'Q0': 3},survey-likert,5.0,56406.0,0.0-0.0-5.0,,125,fi,1757791157868.0,1757790938485.0,"tapping,bat",2,0,m12,null,,,,,,37497,data.txt,,,,,,,,,,,,[0],
6,16072,,,instructions,6.0,72480.0,0.0-0.0-6.0,,125,fi,1757791157868.0,1757790938485.0,"tapping,bat",2,0,m12,null,,,,,,37497,data.txt,"[{'page_index': 0, 'viewing_time': 2471}, {'page_index': 1, 'viewing_time': 2973}, {'page_index': 2, 'viewing_time': 10627}]",,,,,,,,,,,,
7,"[1536.0000000000014, 2048.000000000002, 2602.6666666666783, 3157.3333333333408, 3797.333333333341, 4394.66666666668, 5034.666666666666, 5632.0000000000055, 6229.333333333344, 6784.000000000006, 7424.000000000006, 8021.333333333345, 8661.333333333347, 9216.000000000007, 9856.00000000001, 10410.666666666672, 11008.00000000001, 11605.333333333334, 12245.333333333334, 12842.666666666673, 13397.333333333336, 14037.333333333336, 14677.333333333338, 15232.000000000013, 15829.333333333338, 16384, 16981.33333333334, 17578.66666666668, 18133.33333333334, 18730.66666666668, 19413.33333333334, 19968.000000000004, 20565.333333333343, 21162.666666666668, 22186.666666666668, 22912.000000000007, 23722.666666666668, 24490.666666666668, 25130.66666666667, 25856.000000000007, 26624.00000000001, 27392.00000000001, 28117.333333333336, 28842.66666666667, 29653.333333333336, 30378.666666666675, 31189.333333333336, 31914.666666666675, 32597.33333333334, 33322.66666666668, 34005.33333333334, 34773.33333333334, 35498.66666666668, 36309.33333333334, 37077.33333333334, 37845.33333333334, 38613.33333333334, 39338.66666666667, 40106.66666666667, 40858.66666666668, 41600.00000000001, 42325.333333333336, 43093.333333333336, 43861.333333333336, 44629.333333333336, 45354.66666666667, 46378.66666666667, 46762.66666666667, 47146.66666666668, 47573.333333333336, 48042.66666666668, 48426.66666666668, 48938.66666666668, 49408, 49834.66666666668, 50304, 50730.66666666668, 51157.33333333334, 51669.33333333334, 52096, 52522.66666666668, 52992.00000000001, 53418.666666666664, 53888.00000000001, 54357.33333333334, 54826.66666666667, 55253.33333333334, 55722.66666666667, 56149.33333333334, 56618.666666666686, 57045.33333333333, 57514.66666666667, 57984.00000000001, 58410.666666666686, 58879.99999999999, 59306.66666666667, 59776.00000000001, 60202.666666666686, 60672, 61098.66666666667, 61525.33333333335, 61994.66666666666, 62421.333333333336, 62933.333333333336]",./songs/movementTapAudio/modifiedAudio/name__11 - metronome_const_tempo__stretchfactor__1__1_25__0_75188.mp3,0,audio-button-response,7.0,135533.0,0.0-0.0-7.0,,125,fi,1757791157868.0,1757790938485.0,"tapping,bat",2,0,m12,null,,,,,,37497,data.txt,,,,,,,"[1530.3999999761581, 2030.3999999761581, 2583.2000000476837, 3167.600000023842, 3768.7999999523163, 4387.299999952316, 5023.700000047684, 5608.5, 6227.100000023842, 6795.299999952316, 7430.399999976158, 8029.799999952316, 8650.700000047684, 9217.299999952316, 9836, 10420.899999976158, 11005.600000023842, 11607.200000047684, 12242.200000047684, 12829.5, 13409.600000023842, 14010.100000023842, 14647.700000047684, 15215.899999976158, 15834.399999976158, 16385.5, 16953.600000023842, 17554.700000047684, 18124.100000023842, 18741.100000023842, 19392.299999952316, 19961, 20546.100000023842, 21146.600000023842, 22200.100000023842, 22919, 23702.899999976158, 24505.600000023842, 25124.5, 25860.200000047684, 26627.899999976158, 27362.600000023842, 28097.100000023842, 28849.100000023842, 29652.5, 30387.100000023842, 31189.799999952316, 31891, 32574.899999976158, 33293.799999952316, 34013.10000002384, 34764.60000002384, 35499.799999952316, 36285, 37053.89999997616, 37822.89999997616, 38590.5, 39342.799999952316, 40095.299999952316, 40846.60000002384, 41581.799999952316, 42333.89999997616, 43102.10000002384, 43870.700000047684, 44605.5, 45339.5, 46378.299999952316, 46759.10000002384, 47127.5, 47579, 48030.10000002384, 48431.10000002384, 48915.799999952316, 49384.700000047684, 49835.799999952316, 50286.799999952316, 50736.700000047684, 51171.299999952316, 51655.89999997616, 52074.5, 52524.700000047684, 52976.799999952316, 53428.200000047684, 53896, 54330, 54815, 55232.60000002384, 55700.299999952316, 56134.39999997616, 56602.5, 57054, 57505.60000002384, 57972.799999952316, 58407.200000047684, 58873.89999997616, 59309.60000002384, 59777.89999997616, 60210.60000002384, 60661.700000047684, 61096.5, 61531.60000002384, 61998.10000002384, 62433.799999952316, 62919.200000047684]",0.042666666666666665,0.042666666666666665,0.117,0.121,,
8,,,,html-button-response,8.0,138537.0,0.0-0.0-8.0,,125,fi,1757791157868.0,1757790938485.0,"tapping,bat",2,0,m12,null,,,,,,37497,data.txt,,,,,,,,,,,,,
9,3111,,{'Q0': 3},survey-likert,9.0,141652.0,0.0-0.0-9.0,,125,fi,1757791157868.0,1757790938485.0,"tapping,bat",2,0,m12,null,,,,,,37497,data.txt,,,,,,,,,,,,[0],
10,7767,,,instructions,10.0,149421.0,0.0-0.0-10.0,,125,fi,1757791157868.0,1757790938485.0,"tapping,bat",2,0,m12,null,,,,,,37497,data.txt,"[{'page_index': 0, 'viewing_time': 3907}, {'page_index': 1, 'viewing_time': 3860}]",,,,,,,,,,,,
11,"[1493.3333333333394, 1920.000000000016, 2304.000000000002, 2730.666666666679, 3072.0000000000027, 3242.666666666679, 3456.0000000000173, 3882.666666666665, 4266.66666666668, 4437.333333333356, 4821.333333333342, 4992.000000000018, 5205.3333333333285, 5461.3333333333285, 5802.6666666666815, 5973.333333333329, 6144.0000000000055, 6357.333333333344, 6698.666666666668, 6869.333333333344, 7082.666666666682, 7296.000000000021, 7594.666666666682, 7765.33333333333, 7978.666666666669, 8192.000000000007, 8448.000000000007, 8789.333333333332, 8960.000000000007, 9258.66666666667, 9472.00000000001, 9685.333333333347, 9856.000000000024, 10069.333333333332, 10282.666666666672, 10453.333333333347, 10623.999999999995, 10837.333333333334, 11050.666666666672, 11264.000000000011, 11520.000000000011, 11690.666666666686, 11989.333333333348, 12159.999999999996, 12415.999999999996, 12586.666666666673, 12885.333333333336, 13056.000000000011, 13269.33333333335, 13482.666666666688, 13695.999999999998, 13909.333333333336, 14080.000000000013, 14293.33333333335, 14463.999999999998, 14762.66666666669, 14933.333333333338, 15189.333333333338, 15445.333333333338, 15701.333333333338, 16085.333333333352, 16426.666666666675, 16938.66666666668, 17536, 17749.33333333334, 18261.33333333334, 18773.33333333334, 19029.33333333334, 19456.00000000002, 19626.666666666664, 20096.000000000004, 20949.333333333358, 21205.33333333333, 21546.666666666682, 22144.000000000007, 22357.333333333343, 23040.000000000022, 23594.666666666682, 23722.666666666668, 24234.666666666668, 24448.000000000007, 24832.000000000022, 25045.333333333332, 25429.333333333347, 25642.666666666686, 26026.66666666667, 26197.333333333347, 26623.999999999996, 26794.66666666667, 27221.333333333347, 27434.666666666686, 27861.333333333336, 28032.00000000001, 28458.666666666686, 28629.333333333336, 29056.00000000001, 29226.666666666686, 29653.333333333336, 29866.666666666675, 30293.33333333335, 30506.66666666669, 30848.000000000015, 31061.33333333335, 31530.66666666669, 31701.33333333334, 32128.000000000015, 32298.66666666666, 32768, 33322.666666666664, 33962.66666666668, 34560, 35157.33333333336, 35882.666666666664, 36736.00000000002, 37504.00000000002, 38229.33333333333, 38954.66666666667, 39680.00000000001, 40448.00000000001, 40789.33333333333, 41600.00000000002, 42368.00000000002, 43093.333333333336, 43861.333333333336, 44629.333333333336, 45354.66666666667, 46122.66666666667, 46805.33333333335, 47616.000000000015, 48341.33333333335, 49152.000000000015, 49877.33333333336, 50688.000000000015, 51413.33333333336, 52224.000000000015, 52949.33333333336, 53717.33333333333, 54485.33333333333, 55210.66666666667, 56021.33333333333, 56789.33333333333, 57557.333333333336, 58325.333333333336, 59050.66666666667, 59861.333333333336, 60629.333333333336, 61397.333333333336, 62165.333333333336, 62933.333333333336]",./songs/movementTapAudio/modifiedAudio/name__7 - El Pesebre - Afrosound__stretchfactor__0_72932__0_97__1_2125.mp3,0,audio-button-response,11.0,212561.0,0.0-0.0-11.0,,125,fi,1757791157868.0,1757790938485.0,"tapping,bat",2,0,m12,null,,,,,,37497,data.txt,,,,,,,"[1465.7999999523163, 1917, 2283.7999999523163, 2702.399999976158, 3069, 3235.7000000476837, 3453.2000000476837, 3871, 4253, 4419.899999976158, 4806.600000023842, 4971.5, 5188.600000023842, 5422.5, 5790.100000023842, 5940.399999976158, 6140.899999976158, 6341.5, 6694, 6859.399999976158, 7043.200000047684, 7277.100000023842, 7579.700000047684, 7763.5, 7947.5, 8164.5, 8431.799999952316, 8749.899999976158, 8949.899999976158, 9250.5, 9434.299999952316, 9668.600000023842, 9835, 10069.600000023842, 10253.399999976158, 10437, 10620.600000023842, 10821.299999952316, 11038.799999952316, 11255.399999976158, 11490.799999952316, 11673.600000023842, 11957.600000023842, 12158.299999952316, 12408.100000023842, 12575.5, 12875.899999976158, 13043.299999952316, 13260.200000047684, 13460.600000023842, 13661.700000047684, 13878.799999952316, 14045.799999952316, 14279.600000023842, 14463.600000023842, 14747.700000047684, 14914.799999952316, 15148.799999952316, 15415.700000047684, 15666.299999952316, 16068.700000047684, 16418.600000023842, 16937.5, 17522.200000047684, 17738.200000047684, 18257.299999952316, 18757.799999952316, 18991.799999952316, 19427, 19609.700000047684, 20078.799999952316, 20946.399999976158, 21180.299999952316, 21515.399999976158, 22101.200000047684, 22333.200000047684, 23003.299999952316, 23553.200000047684, 23720, 24222.399999976158, 24438.5, 24824, 25006.5, 25425.899999976158, 25608.100000023842, 25993.5, 26192.899999976158, 26594.899999976158, 26794.200000047684, 27196.5, 27395.799999952316, 27831.799999952316, 28013.600000023842, 28417, 28615.399999976158, 29018, 29217.100000023842, 29636.799999952316, 29834.799999952316, 30271.100000023842, 30470, 30838, 31021.399999976158, 31490.899999976158, 31673.799999952316, 32092, 32291.200000047684, 32727.100000023842, 33294.89999997616, 33930.89999997616, 34548.60000002384, 35133.799999952316, 35868.5, 36704.39999997616, 37472.700000047684, 38207.60000002384, 38925.700000047684, 39678.10000002384, 40412.89999997616, 40762.10000002384, 41582.5, 42333.89999997616, 43069.60000002384, 43821.39999997616, 44590.39999997616, 45341.700000047684, 46094.10000002384, 46794.5, 47597.799999952316, 48331.39999997616, 49118, 49868.799999952316, 50655.10000002384, 51406.799999952316, 52192.200000047684, 52943.89999997616, 53695.89999997616, 54463.89999997616, 55199.799999952316, 56001.700000047684, 56770.60000002384, 57538.89999997616, 58289.5, 59041.299999952316, 59844.5, 60594.10000002384, 61379.299999952316, 62131.799999952316, 62934.60000002384]",0.042666666666666665,0.042666666666666665,0.11800000000000001,0.12,,
12,6428,,{'Q0': 2},survey-likert,12.0,218995.0,0.0-0.0-12.0,,125,fi,1757791157868.0,1757790938485.0,"tapping,bat",2,0,m12,null,,,,,,37497,data.txt,,,,,,,,,,,,[0],
0,11608.0,"<img id=""logoLoading"" src=""./images/loading2.gif""><br>Loading...",0,html-button-response,0.0,11610.0,0.0-0.0-0.0,./songs/beatProductionAudio/beatModified/baseSongs/eclecticElectric/eclecticElectricModifiedLow.mp3,m12_100,fi,1747060043674.0,1747059997423.0,"tapping,bat",3,7,m12,null,,,,,,28672,data.txt,,,,,,,,,,,,,
1,30172.0,"<div id=""titleBAT"">Säädä tahdistusta<br></div><div id=""loading-bar""><div id=""progress-bar""></div></div><div class=""circle""><div id=""firstRowCircle""><button class= ""circle deg-4"" id=""bat0""></button><button class= ""circle deg-5"" id=""bat1""></button><button class= ""circle deg-6"" id=""bat2""></button></div><div id=""secondRowCircle""><button class= ""circle deg-7"" id=""bat3""></button><button class= ""circle deg-0"" id=""bat4""></button></div><div id=""thirdRowCircle""><button class= ""circle deg-1"" id=""bat5""></button><button class= ""circle deg-2"" id=""bat6""></button><button class= ""circle deg-3"" id=""bat7""></button></div></div>",0,html-button-response,1.0,41784.0,0.0-0.0-1.0,./songs/beatProductionAudio/beatModified/baseSongs/eclecticElectric/eclecticElectricModifiedLow.mp3,m12_100,fi,1747060043674.0,1747059997423.0,"tapping,bat",3,7,m12,null,0.0,6.0,6.0,,,28672,data.txt,,,,,,,,,,,,,
2,1526.0,,{'Q0': 4},survey-likert,2.0,43312.0,0.0-0.0-2.0,,m12_100,fi,1747060043674.0,1747059997423.0,"tapping,bat",3,7,m12,null,,,,,,28672,data.txt,,,,,,,,,,,,[0],
3,2777.0,,{'Q0': 2},survey-likert,3.0,46094.0,0.0-0.0-3.0,,m12_100,fi,1747060043674.0,1747059997423.0,"tapping,bat",3,7,m12,null,,,,,,28672,data.txt,,,,,,,,,,,,[0],
0,3543.0,"<img id=""logoLoading"" src=""./images/loading2.gif""><br>Loading...",0,html-button-response,0.0,3545.0,0.0-0.0-0.0,./songs/beatProductionAudio/beatModified/baseSongs/softSand/softSandModifiedLow.mp3,m12_100,fi,1744035943210.0,1744035883786.0,"bat,tapping",2,6,m12,null,,,,,,25531,data.txt,,,,,,,,,,,,,
1,51879.0,"<div id=""titleBAT"">Säädä tahdistusta<br></div><div id=""loading-bar""><div id=""progress-bar""></div></div><div class=""circle""><div id=""firstRowCircle""><button class= ""circle deg-4"" id=""bat0""></button><button class= ""circle deg-5"" id=""bat1""></button><button class= ""circle deg-6"" id=""bat2""></button></div><div id=""secondRowCircle""><button class= ""circle deg-7"" id=""bat3""></button><button class= ""circle deg-0"" id=""bat4""></button></div><div id=""thirdRowCircle""><button class= ""circle deg-1"" id=""bat5""></button><button class= ""circle deg-2"" id=""bat6""></button><button class= ""circle deg-3"" id=""bat7""></button></div></div>",0,html-button-response,1.0,55426.0,0.0-0.0-1.0,./songs/beatProductionAudio/beatModified/baseSongs/softSand/softSandModifiedLow.mp3,m12_100,fi,1744035943210.0,1744035883786.0,"bat,tapping",2,6,m12,null,7.0,10.0,7.0,,,25531,data.txt,,,,,,,,,,,,,
2,1882.0,,{'Q0': 0},survey-likert,2.0,57311.0,0.0-0.0-2.0,,m12_100,fi,1744035943210.0,1744035883786.0,"bat,tapping",2,6,m12,null,,,,,,25531,data.txt,,,,,,,,,,,,[0],
3,1789.0,,{'Q0': 0},survey-likert,3.0,59102.0,0.0-0.0-3.0,,m12_100,fi,1744035943210.0,1744035883786.0,"bat,tapping",2,6,m12,null,,,,,,25531,data.txt,,,,,,,,,,,,[0],
0,1584,"<a href=""https://mmbb.ltdk.helsinki.fi/utils/Privacy_Notice_MMBB_fi.pdf"" target=""_blank"">Tietosuojailmoitus<span class=""new-tab-icon"" aria-hidden=""true""> 🔗</span></a><br><a href=""https://mmbb.ltdk.helsinki.fi/utils/informed_consent_fi.pdf"" target=""_blank"">Tiedote Tutkimuksesta<span class=""new-tab-icon"" aria-hidden=""true""> 🔗</span></a>",0.0,html-button-response,0.0,1588.0,0.0-0.0-0.0,,m12_100,fi,1747598529738.0,1747598510582.0,"tapping,bat",1,0,m12,null,,,,,,29595,data.txt,,,,,,,,,,,,,
1,,,,preload,1.0,2395.0,0.0-0.0-1.0,,m12_100,fi,1747598529738.0,1747598510582.0,"tapping,bat",1,0,m12,null,,,,,,29595,data.txt,,True,False,[],[],[],,,,,,,
2,4792,,,instructions,2.0,7187.0,0.0-0.0-2.0,,m12_100,fi,1747598529738.0,1747598510582.0,"tapping,bat",1,0,m12,null,,,,,,29595,data.txt,"[{'page_index': 0, 'viewing_time': 1096}, {'page_index': 1, 'viewing_time': 814}, {'page_index': 2, 'viewing_time': 1186}, {'page_index': 3, 'viewing_time': 1696}]",,,,,,,,,,,,
3,6553,,,instructions,3.0,13742.0,0.0-0.0-4.0-0.0,,m12_100,fi,1747598529738.0,1747598510582.0,"tapping,bat",1,0,m12,null,,,,,,29595,data.txt,"[{'page_index': 0, 'viewing_time': 3541}, {'page_index': 1, 'viewing_time': 890}, {'page_index': 2, 'viewing_time': 494}, {'page_index': 3, 'viewing_time': 314}, {'page_index': 4, 'viewing_time': 498}, {'page_index': 5, 'viewing_time': 817}]",,,,,,,,,,,,
4,[2909.3333333333344],./songs/movementTapAudio/elPesebre.mp3,0.0,audio-button-response,4.0,16663.0,0.0-0.0-5.0-0.0,,m12_100,fi,1747598529738.0,1747598510582.0,"tapping,bat",1,0,m12,null,,,,,,29595,data.txt,,,,,,,[2914.800000011921],0.01,0.01,0.04,0.04,,
5,1226,Auttaako joku sinua tämän tehtävän suorittamisessa?,1.0,html-button-response,5.0,18692.0,0.0-0.0-7.0,,m12_100,fi,1747598529738.0,1747598510582.0,"tapping,bat",1,0,m12,null,,,,,,29595,data.txt,,,,,,,,,,,,,
0,,,,html-button-response,0.0,1004.0,0.0-0.0-0.0,,101,fi,1752039554520.0,1752039553364.0,"bat,tapping",4,0,m12,null,,,,,,34870,data.txt,,,,,,,,,,,,,
0,2508.0,,,instructions,0.0,2509.0,0.0-0.0-0.0,,m12_100,fi,1743583293759.0,1743583244445.0,"tapping,bat",3,0,m12,null,,,,,,24685,data.txt,"[{'page_index': 0, 'viewing_time': 2507}]",,,,,,,,,,,,
1,46797.0,,,instructions,1.0,49309.0,0.0-0.0-1.0,,m12_100,fi,1743583293759.0,1743583244445.0,"tapping,bat",3,0,m12,null,,,,,,24685,data.txt,"[{'page_index': 0, 'viewing_time': 4611}, {'page_index': 1, 'viewing_time': 8319}, {'page_index': 2, 'viewing_time': 3848}, {'page_index': 3, 'viewing_time': 2934}, {'page_index': 4, 'viewing_time': 3817}, {'page_index': 5, 'viewing_time': 2249}, {'page_index': 6, 'viewing_time': 3101}, {'page_index': 7, 'viewing_time': 9651}, {'page_index': 8, 'viewing_time': 1198}, {'page_index': 9, 'viewing_time': 5899}, {'page_index': 10, 'viewing_time': 1170}]",,,,,,,,,,,,
0,2728.0,,,instructions,0.0,2729.0,0.0-0.0-0.0,,142,eng,1755868131208.0,1755868035797.0,"bat,tapping",2,0,m12,null,,,,,,37098,data.txt,"[{'page_index': 0, 'viewing_time': 2728}]",,,,,,,,,,,,
1,92560.0,,,instructions,1.0,95297.0,0.0-0.0-1.0,,142,eng,1755868131208.0,1755868035797.0,"bat,tapping",2,0,m12,null,,,,,,37098,data.txt,"[{'page_index': 0, 'viewing_time': 5451}, {'page_index': 1, 'viewing_time': 24070}, {'page_index': 2, 'viewing_time': 4629}, {'page_index': 3, 'viewing_time': 1790}, {'page_index': 4, 'viewing_time': 13160}, {'page_index': 5, 'viewing_time': 13115}, {'page_index': 6, 'viewing_time': 5419}, {'page_index': 7, 'viewing_time': 14489}, {'page_index': 8, 'viewing_time': 1675}, {'page_index': 9, 'viewing_time': 5407}, {'page_index': 10, 'viewing_time': 3354}]",,,,,,,,,,,,
0,1568.0,"<img id=""logoLoading"" src=""./images/loading2.gif""><br>Loading...",0,html-button-response,0.0,1573.0,0.0-0.0-0.0,./songs/beatProductionAudio/beatModified/baseSongs/lettuce/lettuceModifiedLow.mp3,141,fi,1751655034521.0,1751655005000.0,"bat,tapping",2,4,m12,null,,,,,,34279,data.txt,,,,,,,,,,,,,
1,25299.0,"<div id=""titleBAT"">Säädä tahdistusta<br></div><div id=""loading-bar""><div id=""progress-bar""></div></div><div class=""circle""><div id=""firstRowCircle""><button class= ""circle deg-4"" id=""bat0""></button><button class= ""circle deg-5"" id=""bat1""></button><button class= ""circle deg-6"" id=""bat2""></button></div><div id=""secondRowCircle""><button class= ""circle deg-7"" id=""bat3""></button><button class= ""circle deg-0"" id=""bat4""></button></div><div id=""thirdRowCircle""><button class= ""circle deg-1"" id=""bat5""></button><button class= ""circle deg-2"" id=""bat6""></button><button class= ""circle deg-3"" id=""bat7""></button></div></div>",0,html-button-response,1.0,26874.0,0.0-0.0-1.0,./songs/beatProductionAudio/beatModified/baseSongs/lettuce/lettuceModifiedLow.mp3,141,fi,1751655034521.0,1751655005000.0,"bat,tapping",2,4,m12,null,0.0,7.0,6.0,,,34279,data.txt,,,,,,,,,,,,,
2,1380.0,,{'Q0': 3},survey-likert,2.0,28262.0,0.0-0.0-2.0,,141,fi,1751655034521.0,1751655005000.0,"bat,tapping",2,4,m12,null,,,,,,34279,data.txt,,,,,,,,,,,,[0],
3,983.0,,{'Q0': 3},survey-likert,3.0,29251.0,0.0-0.0-3.0,,141,fi,1751655034521.0,1751655005000.0,"bat,tapping",2,4,m12,null,,,,,,34279,data.txt,,,,,,,,,,,,[0],
0,1041.0,,,instructions,0.0,1045.0,0.0-0.0-0.0,,148,fi,1751209258589.0,1751209257032.0,"bat,tapping",0.0,0.0,m12,null,,,,,,33894,data.txt,"[{'page_index': 0, 'viewing_time': 1041}]",,,,,,,,,,,,
0,,,,html-button-response,0.0,1004.0,0.0-0.0-0.0,,m12_100,fi,1743519075042.0,1743519073974.0,"tapping,bat",4,0,m12,null,,,,,,24649,data.txt,,,,,,,,,,,,,
0,1584.0,,,instructions,0.0,1590.0,0.0-0.0-0.0,,142,fi,1759936589098.0,1759936532128.0,"tapping,bat",3,0,m12,null,,,,,,38024,data.txt,"[{'page_index': 0, 'viewing_time': 1584}]",,,,,,,,,,,,
1,55113.0,,,instructions,1.0,56704.0,0.0-0.0-1.0,,142,fi,1759936589098.0,1759936532128.0,"tapping,bat",3,0,m12,null,,,,,,38024,data.txt,"[{'page_index': 0, 'viewing_time': 2690}, {'page_index': 1, 'viewing_time': 12349}, {'page_index': 2, 'viewing_time': 2691}, {'page_index': 3, 'viewing_time': 993}, {'page_index': 4, 'viewing_time': 7640}, {'page_index': 5, 'viewing_time': 8857}, {'page_index': 6, 'viewing_time': 3700}, {'page_index': 7, 'viewing_time': 8587}, {'page_index': 8, 'viewing_time': 1125}, {'page_index': 9, 'viewing_time': 4264}, {'page_index': 10, 'viewing_time': 2217}]",,,,,,,,,,,,
0,1278.0,,,instructions,0.0,1284.0,0.0-0.0-0.0,,m12_100,fi,1743582906972.0,1743582905662.0,"tapping,bat",0.0,0.0,m12,null,,,,,,24682,data.txt,"[{'page_index': 0, 'viewing_time': 1269}]",,,,,,,,,,,,
0,1129,,,instructions,0.0,1133.0,0.0-0.0-0.0,,141,fi,1751655363297.0,1751655174990.0,"bat,tapping",3,0,m12,null,,,,,,34284,data.txt,"[{'page_index': 0, 'viewing_time': 1129}]",,,,,,,,,,,,
1,,,,preload,1.0,2118.0,0.0-0.0-1.0,,141,fi,1751655363297.0,1751655174990.0,"bat,tapping",3,0,m12,null,,,,,,34284,data.txt,,True,False,[],[],[],,,,,,,
2,6277,,,instructions,2.0,8396.0,0.0-0.0-2.0,,141,fi,1751655363297.0,1751655174990.0,"bat,tapping",3,0,m12,null,,,,,,34284,data.txt,"[{'page_index': 0, 'viewing_time': 2972}, {'page_index': 1, 'viewing_time': 2136}, {'page_index': 2, 'viewing_time': 1168}]",,,,,,,,,,,,
3,"[1543.9999999999986, 2567.9999999999995, 3210.6666666666665, 3824, 4458.666666666666, 5087.999999999999, 5706.666666666667, 6346.666666666666, 6970.666666666666, 7594.666666666665, 8224, 8866.666666666668, 9514.666666666666, 10146.666666666664, 10770.666666666668, 11352, 11992, 12642.666666666666, 13280.000000000002, 13882.666666666666, 14544, 15143.999999999998, 15783.999999999998, 16432, 17056, 17712, 18344, 18936, 19567.999999999996, 20232, 20896, 21535.999999999996, 22144, 22178.666666666664, 22778.666666666668, 23426.666666666664, 24050.666666666668, 24698.666666666664, 25360.000000000004, 25992, 26634.666666666664, 27242.666666666668, 27871.999999999996, 28496, 29151.999999999996, 29818.666666666668]",./songs/movementTapAudio/silence.wav,0,audio-button-response,3.0,38597.0,0.0-0.0-3.0,,141,fi,1751655363297.0,1751655174990.0,"bat,tapping",3,0,m12,null,,,,,,34284,data.txt,,,,,,,"[1545.199999988079, 2568, 3212.0999999940395, 3825.699999988079, 4460.799999982119, 5088.9000000059605, 5709.5999999940395, 6348.799999982119, 6973.799999982119, 7597.5999999940395, 8225.299999982119, 8869.40000000596, 9518.299999982119, 10149.299999982119, 10773, 11354.90000000596, 11993.299999982119, 12644.199999988079, 13281.299999982119, 13885.799999982119, 14543.90000000596, 15145, 15787, 16435.19999998808, 17056.40000000596, 17712.40000000596, 18343.90000000596, 18938.19999998808, 19571.59999999404, 20231.59999999404, 20899.29999998212, 21537.19999998808, 22144.59999999404, 22180.29999998212, 22781.40000000596, 23429.69999998808, 24053.69999998808, 24701.79999998212, 25360.19999998808, 25994, 26638.40000000596, 27245.09999999404, 27872.69999998808, 28498.5, 29154.19999998808, 29821.5]",0.004,0.004,0.184,0.184,,
4,,,,html-button-response,4.0,41607.0,0.0-0.0-4.0,,141,fi,1751655363297.0,1751655174990.0,"bat,tapping",3,0,m12,null,,,,,,34284,data.txt,,,,,,,,,,,,,
5,2328,,{'Q0': 4},survey-likert,5.0,43947.0,0.0-0.0-5.0,,141,fi,1751655363297.0,1751655174990.0,"bat,tapping",3,0,m12,null,,,,,,34284,data.txt,,,,,,,,,,,,[0],
6,8193,,,instructions,6.0,52144.0,0.0-0.0-6.0,,141,fi,1751655363297.0,1751655174990.0,"bat,tapping",3,0,m12,null,,,,,,34284,data.txt,"[{'page_index': 0, 'viewing_time': 1461}, {'page_index': 1, 'viewing_time': 996}, {'page_index': 2, 'viewing_time': 5734}]",,,,,,,,,,,,
7,"[1951.9999999999982, 2431.999999999995, 2903.9999999999964, 3351.999999999997, 3762.666666666668, 4223.999999999996, 4680, 5114.666666666664, 5578.666666666663, 6042.666666666662, 6512, 6920.000000000002, 7367.9999999999945, 7847.999999999999, 8322.666666666662, 8778.666666666666, 9199.999999999996, 9623.999999999995, 10058.666666666668, 10543.999999999996, 10991.999999999998, 11415.999999999996, 11872, 12354.666666666659, 12802.666666666668, 13274.66666666666, 13695.999999999998, 14143.99999999999, 14594.666666666668, 15039.999999999993, 15463.999999999998, 15922.666666666672, 16567.999999999996, 17250.66666666666, 17890.66666666666, 18498.666666666664, 19120.000000000004, 19722.666666666668, 20287.999999999996, 20927.999999999996, 21504.000000000004, 22114.666666666664, 22714.66666666666, 23304.000000000004, 23906.666666666668, 24490.666666666668, 25082.666666666668, 25634.66666666666, 26250.66666666666, 26888.000000000004, 27488, 28090.666666666664, 28714.66666666666, 29319.999999999993, 29922.66666666667, 30506.66666666666, 31128, 31727.999999999993, 32328.000000000004, 32920, 33519.99999999999, 34120.00000000001, 34682.666666666664, 35266.666666666664, 35872, 36826.66666666667, 37562.66666666666, 38266.666666666664, 39039.99999999999, 39800, 40544, 41266.666666666664, 42056, 42792, 43554.666666666664, 44290.666666666664, 45034.666666666664, 45794.66666666667, 46551.99999999999, 47263.99999999999, 47994.66666666666, 48736.00000000001, 49538.66666666667, 50282.66666666667, 51034.666666666664, 51762.666666666664, 52519.99999999999, 53288, 54032, 54783.99999999999, 55530.666666666664, 56271.99999999999, 56992.00000000001, 57768, 58544, 59280, 60039.99999999999, 60770.66666666667, 61498.666666666664, 62234.66666666667]",./songs/movementTapAudio/modifiedAudio/name__11 - metronome_const_tempo__stretchfactor__0_75188__1__1_25.mp3,0,audio-button-response,7.0,115152.0,0.0-0.0-7.0,,141,fi,1751655363297.0,1751655174990.0,"bat,tapping",3,0,m12,null,,,,,,34284,data.txt,,,,,,,"[2100, 2579, 3050.0999999940395, 3497.0999999940395, 3912.0999999940395, 4370.299999982119, 4825.5, 5262.199999988079, 5726.9000000059605, 6191.199999988079, 6656.199999988079, 7065.199999988079, 7512.799999982119, 7995.699999988079, 8470.90000000596, 8925.90000000596, 9345.299999982119, 9770.199999988079, 10206.699999988079, 10689.199999988079, 11137.799999982119, 11560.799999982119, 12016.5, 12502.699999988079, 12952.199999988079, 13422.40000000596, 13843.59999999404, 14291.40000000596, 14741.199999988079, 15187.59999999404, 15612.09999999404, 16069.90000000596, 16714.90000000596, 17399.29999998212, 18037.90000000596, 18646, 19265.19999998808, 19869.79999998212, 20436.69999998808, 21074.59999999404, 21651.40000000596, 22261.59999999404, 22862.09999999404, 23450.09999999404, 24054.09999999404, 24636.5, 25230.59999999404, 25783.19999998808, 26396.90000000596, 27034.79999998212, 27633.40000000596, 28238.5, 28863.40000000596, 29465.29999998212, 30073.69999998808, 30653.90000000596, 31275, 31874.40000000596, 32474.40000000596, 33065.90000000596, 33667.40000000596, 34264.90000000596, 34831.5, 35414.5, 36019.69999998808, 36973.5, 37710.5, 38412.19999998808, 39187.59999999404, 39946.5, 40689.40000000596, 41413.79999998212, 42202.69999998808, 42937.29999998212, 43701.90000000596, 44438, 45182.90000000596, 45946.79999998212, 46697, 47412.5, 48142, 48881.29999998212, 49687.09999999404, 50430.5, 51183.69999998808, 51911.09999999404, 52668.40000000596, 53434.5, 54176.69999998808, 54931.59999999404, 55679.59999999404, 56419.40000000596, 57137, 57915.69999998808, 58692.40000000596, 59426.09999999404, 60185.90000000596, 60920.79999998212, 61644.59999999404, 62382.69999998808]",0.004,0.004,0.184,0.184,,
8,,,,html-button-response,8.0,118161.0,0.0-0.0-8.0,,141,fi,1751655363297.0,1751655174990.0,"bat,tapping",3,0,m12,null,,,,,,34284,data.txt,,,,,,,,,,,,,
9,1890,,{'Q0': 4},survey-likert,9.0,120060.0,0.0-0.0-9.0,,141,fi,1751655363297.0,1751655174990.0,"bat,tapping",3,0,m12,null,,,,,,34284,data.txt,,,,,,,,,,,,[0],
10,2551,,,instructions,10.0,122613.0,0.0-0.0-10.0,,141,fi,1751655363297.0,1751655174990.0,"bat,tapping",3,0,m12,null,,,,,,34284,data.txt,"[{'page_index': 0, 'viewing_time': 1155}, {'page_index': 1, 'viewing_time': 1395}]",,,,,,,,,,,,
11,"[2357.3333333333294, 2927.9999999999973, 3573.3333333333376, 4173.333333333332, 4781.333333333336, 5349.333333333334, 5949.333333333342, 6543.999999999997, 7181.333333333342, 7751.999999999995, 8368.00000000001, 8933.333333333323, 9565.333333333328, 10160.000000000011, 10736.000000000004, 11341.333333333338, 11952.000000000013, 12512.000000000015, 13104, 13688.000000000002, 14333.333333333328, 14904.000000000011, 15528.000000000005, 16141.333333333321, 16757.333333333336, 17341.33333333334, 17992.000000000004, 18592, 19191.999999999993, 19781.333333333336, 20365.33333333334, 20965.333333333332, 21648.00000000001, 22303.99999999999, 23093.333333333347, 23872, 24621.33333333334, 25381.333333333332, 26176.000000000004, 26925.333333333343, 27669.333333333343, 28429.333333333332, 29173.333333333332, 29920, 30645.33333333334, 31399.999999999993, 32133.33333333334, 32877.33333333334, 33688, 34456, 35256.000000000015, 35992.00000000001, 36768.000000000015, 37509.33333333334, 38301.33333333334, 39061.333333333336, 39821.33333333333, 40541.33333333333, 41325.33333333335, 42048.000000000015, 43181.33333333334, 43911.99999999999, 44701.33333333332, 45453.333333333336, 46016.00000000001, 46616, 47119.99999999999, 47600.00000000001, 48053.33333333333, 48517.33333333333, 48968, 49432, 49877.33333333334, 50317.333333333336, 50784.00000000001, 51245.333333333336, 51696.000000000015, 52128, 52605.33333333335, 53040.00000000001, 53501.333333333336, 53959.99999999999, 54461.33333333334, 54901.33333333334, 55384, 55863.99999999999, 56325.33333333335, 56775.99999999999, 57232.000000000015, 57679.99999999999, 58136.00000000001, 58605.33333333335, 59024.000000000015, 59488.000000000015, 59952.000000000015, 60423.99999999999, 60863.99999999999, 61341.333333333336, 61800, 62277.33333333334, 62725.33333333332]",./songs/movementTapAudio/modifiedAudio/name__7 - El Pesebre - Afrosound__stretchfactor__0_97__1_2125__0_72932.mp3,0,audio-button-response,11.0,185622.0,0.0-0.0-11.0,,141,fi,1751655363297.0,1751655174990.0,"bat,tapping",3,0,m12,null,,,,,,34284,data.txt,,,,,,,"[2353.300000011921, 2927, 3569.5999999940395, 4172.300000011921, 4776.5, 5346.5, 5948.4000000059605, 6543.9000000059605, 7180.0999999940395, 7750.0999999940395, 8365.300000011921, 8931, 9561.59999999404, 10158.09999999404, 10733.700000017881, 11339.59999999404, 11949.59999999404, 12511.800000011921, 13104.200000017881, 13685.200000017881, 14328.800000011921, 14900.200000017881, 15525.700000017881, 16139.90000000596, 16754.5, 17338.90000000596, 17988.20000001788, 18589.20000001788, 19189.90000000596, 19777.90000000596, 20363.90000000596, 20960.90000000596, 21646.30000001192, 22301.09999999404, 23089.59999999404, 23869.80000001192, 24616.40000000596, 25377, 26174.90000000596, 26921.20000001788, 27666, 28428.30000001192, 29171.80000001192, 29916.80000001192, 30640.70000001788, 31396.90000000596, 32128.70000001788, 32875.40000000596, 33685.80000001192, 34455.09999999404, 35253.20000001788, 35989.09999999404, 36768.30000001192, 37507.90000000596, 38297, 39059.40000000596, 39816.5, 40540, 41322.70000001788, 42045.80000001192, 43176.80000001192, 43909.70000001788, 44699.30000001192, 45449, 46015.20000001788, 46614, 47118.70000001788, 47599.09999999404, 48049.90000000596, 48512.80000001192, 48968.40000000596, 49431.09999999404, 49875.80000001192, 50314.59999999404, 50781.80000001192, 51242, 51693.80000001192, 52126.59999999404, 52600.90000000596, 53038.80000001192, 53498.40000000596, 53957.70000001788, 54457.80000001192, 54898.09999999404, 55380.59999999404, 55860.80000001192, 56322.40000000596, 56773.90000000596, 57230, 57677.20000001788, 58135.40000000596, 58601.90000000596, 59020.40000000596, 59485.70000001788, 59955.20000001788, 60422.09999999404, 60862.30000001192, 61339.09999999404, 61798.90000000596, 62274.59999999404, 62724.30000001192]",0.004,0.004,0.184,0.184,,
12,2428,,{'Q0': 3},survey-likert,12.0,188056.0,0.0-0.0-12.0,,141,fi,1751655363297.0,1751655174990.0,"bat,tapping",3,0,m12,null,,,,,,34284,data.txt,,,,,,,,,,,,[0],
0,1352,,,instructions,0.0,1353.0,0.0-0.0-0.0,,m12_100,fi,1743518671944.0,1743518462608.0,"tapping,bat",2,0,m12,null,,,,,,24640,data.txt,"[{'page_index': 0, 'viewing_time': 1351}]",,,,,,,,,,,,
1,,,,preload,1.0,2150.0,0.0-0.0-1.0,,m12_100,fi,1743518671944.0,1743518462608.0,"tapping,bat",2,0,m12,null,,,,,,24640,data.txt,,True,False,[],[],[],,,,,,,
2,14868,,,instructions,2.0,17018.0,0.0-0.0-2.0,,m12_100,fi,1743518671944.0,1743518462608.0,"tapping,bat",2,0,m12,null,,,,,,24640,data.txt,"[{'page_index': 0, 'viewing_time': 6095}, {'page_index': 1, 'viewing_time': 5638}, {'page_index': 2, 'viewing_time': 3135}]",,,,,,,,,,,,
3,"[1509.3333333333323, 2957.3333333333326, 4458.666666666668, 5525.333333333334, 6744.000000000002, 7077.333333333334, 8045.333333333334, 9226.666666666664, 10213.333333333332, 11365.333333333334, 12415.999999999998, 13482.666666666664, 14498.666666666666, 15533.333333333334, 16485.33333333333, 17381.333333333332, 17952, 18549.33333333333, 19183.999999999996, 19834.666666666664, 20402.66666666666, 21002.666666666664, 21613.33333333333, 22234.66666666666, 22384, 22735.999999999996, 23133.333333333332, 23536, 24021.333333333332, 24637.333333333332, 25256, 25853.333333333332, 26421.33333333333, 27021.333333333332, 27570.666666666668, 28186.666666666668, 28872, 29506.666666666668]",./songs/movementTapAudio/silence.wav,0,audio-button-response,3.0,47255.0,0.0-0.0-3.0,,m12_100,fi,1743518671944.0,1743518462608.0,"tapping,bat",2,0,m12,null,,,,,,24640,data.txt,,,,,,,"[1509, 2958, 4459.000000000004, 5527, 6745, 7078, 8045, 9228, 10213, 11365, 12415, 13484, 14498.999999999996, 15533, 16485, 17382, 17951, 18551.000000000007, 19183, 19834, 20402, 21003, 21613, 22235, 22386, 22736, 23133, 23538, 24021, 24639, 25256, 25854, 26421, 27022, 27571, 28188, 28873, 29506]",0.0026666666666666666,0.0026666666666666666,,,,
4,,,,html-button-response,4.0,50261.0,0.0-0.0-4.0,,m12_100,fi,1743518671944.0,1743518462608.0,"tapping,bat",2,0,m12,null,,,,,,24640,data.txt,,,,,,,,,,,,,
5,3514,,{'Q0': 4},survey-likert,5.0,53781.0,0.0-0.0-5.0,,m12_100,fi,1743518671944.0,1743518462608.0,"tapping,bat",2,0,m12,null,,,,,,24640,data.txt,,,,,,,,,,,,[0],
6,16267,,,instructions,6.0,70051.0,0.0-0.0-6.0,,m12_100,fi,1743518671944.0,1743518462608.0,"tapping,bat",2,0,m12,null,,,,,,24640,data.txt,"[{'page_index': 0, 'viewing_time': 1613}, {'page_index': 1, 'viewing_time': 5092}, {'page_index': 2, 'viewing_time': 9562}]",,,,,,,,,,,,
7,"[1669.3333333333271, 2301.333333333332, 3021.333333333331, 3821.333333333328, 4519.999999999996, 5287.999999999996, 6037.333333333322, 6789.333333333332, 7538.666666666657, 8274.66666666666, 9037.333333333321, 9839.999999999989, 10506.66666666666, 11239.999999999995, 12007.999999999996, 12757.333333333321, 13538.666666666657, 14293.333333333323, 15042.666666666662, 15791.999999999987, 16541.33333333333, 17293.33333333332, 18010.666666666664, 18762.66666666666, 19527.999999999993, 20277.333333333332, 21045.333333333332, 21794.666666666657, 22562.666666666657, 23314.666666666668, 24047.99999999999, 24815.99999999999, 25546.666666666668, 26263.999999999996, 26898.666666666657, 27479.99999999999, 27917.333333333332, 28429.333333333332, 29114.666666666664, 29698.666666666653, 30349.333333333336, 30933.33333333332, 31501.33333333332, 32082.666666666653, 32685.333333333332, 33301.33333333333, 33938.666666666664, 34501.33333333332, 35069.333333333336, 35666.66666666666, 36285.33333333333, 36922.66666666666, 37501.33333333332, 38138.666666666664, 38685.333333333336, 39336, 39938.666666666664, 40522.666666666664, 41138.666666666664, 41672, 42354.66666666666, 42922.66666666666, 43522.666666666664, 44090.666666666664, 44674.666666666664, 45309.33333333333, 45890.666666666664, 46191.99999999999, 46607.99999999999, 47087.99999999999, 47607.99999999999, 48026.66666666666, 48544, 48925.33333333333, 49394.666666666664, 49824, 50309.33333333333, 50744, 51245.33333333332, 51626.666666666664, 52080, 52512, 53010.666666666664, 53445.33333333332, 53896, 54362.66666666666, 54781.33333333332, 55213.33333333332, 55698.66666666666, 56143.99999999999, 56597.33333333332, 57061.33333333332, 57495.99999999999, 57949.33333333333, 58413.33333333333, 58879.99999999999, 59314.666666666664, 59730.666666666664, 60197.333333333336, 60647.999999999985, 61117.33333333332, 61568, 62032, 62432, 62882.66666666665]",./songs/movementTapAudio/modifiedAudio/name__11 - metronome_const_tempo__stretchfactor__1_25__1__0_75188.mp3,0,audio-button-response,7.0,133057.0,0.0-0.0-7.0,,m12_100,fi,1743518671944.0,1743518462608.0,"tapping,bat",2,0,m12,null,,,,,,24640,data.txt,,,,,,,"[1667, 2300.0000000000146, 3020, 3819, 4519, 5286, 6036, 6789, 7538.000000000015, 8273.000000000015, 9037, 9838, 10506, 11238, 12006, 12757, 13538.000000000015, 14291.000000000015, 15042, 15790, 16541.000000000015, 17293, 18009, 18760, 19526.000000000015, 20277, 21043, 21793, 22560, 23313, 24046, 24815.000000000015, 25546, 26262, 26898.000000000015, 27479, 27917, 28428.000000000015, 29114, 29698, 30349, 30933, 31499, 32081, 32683, 33299, 33936, 34501, 35067, 35666.000000000015, 36283, 36921, 37501, 38137, 38685, 39336, 39937.000000000015, 40521, 41136, 41669.000000000015, 42353, 42922.000000000015, 43521, 44088, 44673, 45307, 45890, 46190.000000000015, 46607, 47087, 47607, 48024, 48543, 48923, 49392, 49823, 50308, 50743, 51244, 51625, 52078, 52511, 53009, 53443.000000000015, 53894, 54360, 54779.000000000015, 55211, 55696.000000000015, 56143, 56596, 57060, 57495, 57947, 58411, 58879.000000000015, 59313.000000000015, 59728, 60197, 60646, 61114, 61565, 62031, 62431, 62882]",0.0026666666666666666,0.0026666666666666666,,,,
8,,,,html-button-response,8.0,136061.0,0.0-0.0-8.0,,m12_100,fi,1743518671944.0,1743518462608.0,"tapping,bat",2,0,m12,null,,,,,,24640,data.txt,,,,,,,,,,,,,
9,3326,,{'Q0': 4},survey-likert,9.0,139391.0,0.0-0.0-9.0,,m12_100,fi,1743518671944.0,1743518462608.0,"tapping,bat",2,0,m12,null,,,,,,24640,data.txt,,,,,,,,,,,,[0],
10,4217,,,instructions,10.0,143615.0,0.0-0.0-10.0,,m12_100,fi,1743518671944.0,1743518462608.0,"tapping,bat",2,0,m12,null,,,,,,24640,data.txt,"[{'page_index': 0, 'viewing_time': 1953}, {'page_index': 1, 'viewing_time': 2264}]",,,,,,,,,,,,
11,"[970.6666666666592, 1325.333333333333, 1544.0000000000111, 1778.6666666666804, 1991.9999999999902, 2197.333333333347, 2426.6666666666765, 2642.666666666656, 2896.000000000015, 3093.333333333334, 3330.666666666673, 3560.0000000000023, 3762.6666666666606, 3978.666666666669, 4194.666666666677, 4461.3333333333285, 4661.333333333346, 4877.333333333326, 5093.333333333334, 5346.666666666664, 5562.666666666672, 5778.666666666681, 5978.666666666669, 6210.666666666668, 6413.333333333327, 6647.999999999996, 6879.999999999995, 7096.000000000004, 7346.666666666664, 7562.666666666672, 7781.333333333322, 8013.333333333349, 8247.99999999999, 8463.999999999998, 8680.000000000007, 8912.000000000005, 9146.666666666675, 9362.666666666655, 9581.333333333334, 9797.333333333341, 10032.000000000011, 10247.99999999999, 10482.66666666666, 10711.999999999989, 10933.333333333338, 11162.666666666666, 11381.333333333345, 11613.333333333343, 11848.000000000013, 12098.666666666673, 12367.999999999995, 12533.333333333332, 12765.33333333333, 12997.33333333333, 13199.999999999989, 13415.999999999996, 13647.999999999996, 13885.333333333336, 14101.333333333343, 14314.666666666682, 14568.000000000013, 14800.000000000011, 15015.99999999999, 15250.66666666666, 15466.666666666668, 15698.666666666668, 15920.000000000016, 16183.999999999998, 16517.33333333334, 16834.666666666664, 17149.333333333347, 17450.66666666668, 17752.00000000001, 18082.666666666682, 18352.000000000004, 18693.33333333333, 18952, 19269.33333333335, 19536, 19866.666666666675, 20186.666666666668, 20520.00000000001, 20802.666666666682, 21120.000000000004, 21367.999999999996, 21704.000000000007, 21989.33333333335, 22352.000000000004, 22586.66666666667, 22920.000000000015, 23223.99999999999, 23520.00000000001, 23805.33333333332, 24087.999999999993, 24354.666666666675, 24671.999999999996, 25005.33333333334, 25357.333333333343, 25640.000000000015, 25970.66666666666, 26274.66666666666, 26570.666666666682, 26872.000000000015, 27170.666666666675, 27474.66666666668, 27789.333333333332, 28074.66666666667, 28373.333333333336, 28671.999999999996, 28989.33333333335, 29258.66666666667, 29608.000000000004, 29909.333333333336, 30223.99999999999, 30509.333333333332, 30807.999999999993, 31106.666666666682, 31424.000000000007, 31690.666666666657, 32008.00000000001, 32306.66666666667, 32623.999999999996, 32906.666666666664, 33210.66666666667, 33506.66666666666, 33842.66666666667, 34144.00000000001, 34426.66666666668, 34728.00000000001, 35026.66666666667, 35328, 35661.33333333334, 36144.00000000001, 36629.333333333336, 36960.00000000001, 37661.33333333334, 38045.33333333333, 38432.000000000015, 38797.33333333334, 39197.33333333335, 39578.666666666664, 39962.66666666668, 40330.66666666667, 40680.00000000001, 41029.33333333334, 41432.000000000015, 41778.66666666668, 42197.33333333335, 42581.333333333336, 42930.666666666664, 43314.66666666668, 43682.66666666668, 44048, 44400.00000000001, 44781.33333333332, 45146.66666666668, 45549.33333333332, 45933.333333333336, 46349.333333333336, 46682.66666666668, 47048, 47482.66666666666, 47869.33333333334, 48250.66666666666, 48599.99999999999, 49000, 49384.000000000015, 49752.00000000001, 50098.66666666667, 50501.33333333335, 50885.333333333336, 51269.33333333335, 51669.33333333333, 52037.33333333332, 52434.66666666666, 52802.66666666668, 53186.666666666664, 53586.66666666667, 53952, 54319.99999999999, 54688.000000000015, 55087.99999999999, 55469.333333333336, 55837.333333333336, 56223.99999999999, 56656.00000000001, 57039.99999999999, 57421.333333333336, 57821.33333333334, 58256, 58589.33333333334, 58954.66666666667, 59354.66666666667, 59738.66666666666, 60122.66666666667, 60522.66666666668, 60890.66666666667, 61240.00000000001, 61640.000000000015, 62056.000000000015, 62424.00000000001, 62792]",./songs/movementTapAudio/modifiedAudio/name__7 - El Pesebre - Afrosound__stretchfactor__0_72932__0_97__1_2125.mp3,0,audio-button-response,11.0,206618.0,0.0-0.0-11.0,,m12_100,fi,1743518671944.0,1743518462608.0,"tapping,bat",2,0,m12,null,,,,,,24640,data.txt,,,,,,,"[971, 1327, 1545.000000000029, 1779, 1993, 2197, 2426.000000000029, 2644, 2895, 3094, 3330, 3561, 3763, 3979, 4197, 4461, 4661, 4878, 5094, 5347, 5563.000000000029, 5779, 5979, 6212.000000000029, 6415, 6648, 6880, 7098, 7348, 7564, 7782, 8015, 8249, 8465, 8680, 8913, 9147, 9365, 9582, 9799, 10032, 10248, 10483, 10714, 10934, 11164.00000000003, 11383, 11614, 11848, 12099.00000000003, 12367, 12533.00000000003, 12767, 12999, 13202, 13416, 13649, 13885, 14101, 14316, 14568, 14800, 15017, 15252, 15467, 15700.00000000003, 15920.00000000003, 16184, 16518, 16835, 17150, 17451, 17752, 18084, 18353, 18693, 18953, 19270, 19536, 19868, 20186, 20521, 20803, 21120, 21369, 21703, 21989, 22353, 22587.00000000003, 22922, 23224.00000000003, 23522, 23806, 24089, 24356, 24673, 25007, 25358, 25640, 25972, 26276, 26572, 26873, 27172, 27475, 27789.00000000003, 28074, 28374, 28674, 28990, 29260, 29608, 29909, 30225, 30510, 30808, 31108, 31425, 31691, 32009, 32308, 32625, 32908.00000000003, 33211, 33508, 33845, 34144, 34427, 34728, 35028, 35330, 35661, 36145, 36629, 36961, 37661, 38047, 38431, 38797, 39198, 39578, 39963, 40330, 40680, 41031, 41431, 41780, 42198, 42581.00000000003, 42932.00000000003, 43315, 43683, 44049, 44400, 44782, 45148, 45549, 45933, 46350, 46684, 47050, 47484, 47870, 48251, 48600, 49000, 49384, 49751, 50100, 50501, 50884, 51269, 51670.00000000003, 52037, 52435, 52804, 53186, 53587.00000000003, 53952, 54319.00000000003, 54687, 55088, 55471, 55838, 56224.00000000003, 56656, 57039.00000000003, 57421, 57821, 58257, 58590, 58956.00000000003, 59356, 59739, 60123.00000000003, 60523, 60890, 61239, 61640, 62057.00000000003, 62423, 62791]",0.0026666666666666666,0.0026666666666666666,,,,
12,2435,,{'Q0': 4},survey-likert,12.0,209056.0,0.0-0.0-12.0,,m12_100,fi,1743518671944.0,1743518462608.0,"tapping,bat",2,0,m12,null,,,,,,24640,data.txt,,,,,,,,,,,,[0],
0,1253,"<a href=""https://mmbb.ltdk.helsinki.fi/utils/Privacy_Notice_MMBB_fi.pdf"" target=""_blank"">Tietosuojailmoitus<span class=""new-tab-icon"" aria-hidden=""true""> 🔗</span></a><br><a href=""https://mmbb.ltdk.helsinki.fi/utils/informed_consent_fi.pdf"" target=""_blank"">Tiedote Tutkimuksesta<span class=""new-tab-icon"" aria-hidden=""true""> 🔗</span></a>",0.0,html-button-response,0.0,1260.0,0.0-0.0-0.0,,142,fi,1759936327702.0,1759936311717.0,"tapping,bat",1,0,m12,null,,,,,,38015,data.txt,,,,,,,,,,,,,
1,,,,preload,1.0,1886.0,0.0-0.0-1.0,,142,fi,1759936327702.0,1759936311717.0,"tapping,bat",1,0,m12,null,,,,,,38015,data.txt,,True,False,[],[],[],,,,,,,
2,3341,,,instructions,2.0,5228.0,0.0-0.0-2.0,,142,fi,1759936327702.0,1759936311717.0,"tapping,bat",1,0,m12,null,,,,,,38015,data.txt,"[{'page_index': 0, 'viewing_time': 618}, {'page_index': 1, 'viewing_time': 1048}, {'page_index': 2, 'viewing_time': 766}, {'page_index': 3, 'viewing_time': 909}]",,,,,,,,,,,,
3,6857,,,instructions,3.0,12087.0,0.0-0.0-4.0-0.0,,142,fi,1759936327702.0,1759936311717.0,"tapping,bat",1,0,m12,null,,,,,,38015,data.txt,"[{'page_index': 0, 'viewing_time': 2699}, {'page_index': 1, 'viewing_time': 916}, {'page_index': 2, 'viewing_time': 643}, {'page_index': 3, 'viewing_time': 624}, {'page_index': 4, 'viewing_time': 736}, {'page_index': 5, 'viewing_time': 1240}]",,,,,,,,,,,,
4,[1194.6666666666665],./songs/movementTapAudio/elPesebre.mp3,0.0,audio-button-response,4.0,13351.0,0.0-0.0-6.0-0.0,,142,fi,1759936327702.0,1759936311717.0,"tapping,bat",1,0,m12,null,,,,,,38015,data.txt,,,,,,,[1259.5],0.005333333333333333,0.005333333333333333,0.619,0.619,,
5,1479,Auttaako joku sinua tämän tehtävän suorittamisessa?,0.0,html-button-response,5.0,15633.0,0.0-0.0-7.0,,142,fi,1759936327702.0,1759936311717.0,"tapping,bat",1,0,m12,null,,,,,,38015,data.txt,,,,,,,,,,,,,
0,1945.0,"<img id=""logoLoading"" src=""./images/loading2.gif""><br>Loading...",0,html-button-response,0.0,1949.0,0.0-0.0-0.0,./songs/beatProductionAudio/beatModified/baseSongs/softSand/softSandModifiedLow.mp3,m12_100,fi,1743519012378.0,1743518958840.0,"tapping,bat",3,6,m12,null,,,,,,24647,data.txt,,,,,,,,,,,,,
1,47927.0,"<div id=""titleBAT"">Säädä tahdistusta<br></div><div id=""loading-bar""><div id=""progress-bar""></div></div><div class=""circle""><div id=""firstRowCircle""><button class= ""circle deg-4"" id=""bat0""></button><button class= ""circle deg-5"" id=""bat1""></button><button class= ""circle deg-6"" id=""bat2""></button></div><div id=""secondRowCircle""><button class= ""circle deg-7"" id=""bat3""></button><button class= ""circle deg-0"" id=""bat4""></button></div><div id=""thirdRowCircle""><button class= ""circle deg-1"" id=""bat5""></button><button class= ""circle deg-2"" id=""bat6""></button><button class= ""circle deg-3"" id=""bat7""></button></div></div>",0,html-button-response,1.0,49876.0,0.0-0.0-1.0,./songs/beatProductionAudio/beatModified/baseSongs/softSand/softSandModifiedLow.mp3,m12_100,fi,1743519012378.0,1743518958840.0,"tapping,bat",3,6,m12,null,0.0,5.0,5.0,,,24647,data.txt,,,,,,,,,,,,,
2,1927.0,,{'Q0': 3},survey-likert,2.0,51804.0,0.0-0.0-2.0,,m12_100,fi,1743519012378.0,1743518958840.0,"tapping,bat",3,6,m12,null,,,,,,24647,data.txt,,,,,,,,,,,,[0],
3,1486.0,,{'Q0': 3},survey-likert,3.0,53299.0,0.0-0.0-3.0,,m12_100,fi,1743519012378.0,1743518958840.0,"tapping,bat",3,6,m12,null,,,,,,24647,data.txt,,,,,,,,,,,,[0],
0,1616.0,"<img id=""logoLoading"" src=""./images/loading2.gif""><br>Loading...",0,html-button-response,0.0,1622.0,0.0-0.0-0.0,./songs/beatProductionAudio/beatModified/baseSongs/eclecticElectric/eclecticElectricModifiedLow.mp3,141,fi,1751655174089.0,1751655122340.0,"bat,tapping",2,7,m12,null,,,,,,34283,data.txt,,,,,,,,,,,,,
1,46204.0,"<div id=""titleBAT"">Säädä tahdistusta<br></div><div id=""loading-bar""><div id=""progress-bar""></div></div><div class=""circle""><div id=""firstRowCircle""><button class= ""circle deg-4"" id=""bat0""></button><button class= ""circle deg-5"" id=""bat1""></button><button class= ""circle deg-6"" id=""bat2""></button></div><div id=""secondRowCircle""><button class= ""circle deg-7"" id=""bat3""></button><button class= ""circle deg-0"" id=""bat4""></button></div><div id=""thirdRowCircle""><button class= ""circle deg-1"" id=""bat5""></button><button class= ""circle deg-2"" id=""bat6""></button><button class= ""circle deg-3"" id=""bat7""></button></div></div>",0,html-button-response,1.0,47829.0,0.0-0.0-1.0,./songs/beatProductionAudio/beatModified/baseSongs/eclecticElectric/eclecticElectricModifiedLow.mp3,141,fi,1751655174089.0,1751655122340.0,"bat,tapping",2,7,m12,null,0.0,9.0,2.0,,,34283,data.txt,,,,,,,,,,,,,
